"subject_id" "trial_number" "trial_id" "target_sentence" "question" "target_side" "other_side" "trial_type" "date_stamp" "time_stamp" "side_chosen" "accuracy" "rt" "play_counter" "date_of_birth" "native_lang" "other_langs" "dev_info" "gender" "order" "sentence_type" "animacy" "version"
"1ebbSRddusMUfuZicVGxXhkbI" 1 "4fillerpost2" "The_prince_will_move_the_blanket_to_the_sofa" "Can_you_move_the_blanket_to_the_sofa?" "right" "left" "posttest_filler" "7/1/2019" "10:43" "right" 1 6273.135 1 "20/02/15" "English" NA NA "male" "Pre" "PO" "NonPred" "Old"
"1ebbSRddusMUfuZicVGxXhkbI" 2 "3fillerpost2" "Dora_the_explorer_will_put_the_food_in_the_basket" "Can_you_put_the_food_in_the_basket?" "left" "right" "posttest_filler" "7/1/2019" "10:43" "left" 1 32013.135 1 "20/02/15" "English" NA NA "male" "Pre" "PO" "NonPred" "Old"
"1ebbSRddusMUfuZicVGxXhkbI" 3 "2post2" "The_girl_will_bring_the_horse_an_ice_cream" "Can_you_bring_the_horse_the_ice_cream?" "left" "right" "posttest" "7/1/2019" "10:43" "left" 1 7682.135 1 "20/02/15" "English" NA NA "male" "Pre" "PO" "NonPred" "Old"
"1ebbSRddusMUfuZicVGxXhkbI" 4 "2fillerpost2" "Boots_will_clean_the_chair_with_the_sponge" "Can_you_clean_the_chair_with_the_sponge?" "left" "right" "posttest_filler" "7/1/2019" "10:43" "left" 1 6093.135 1 "20/02/15" "English" NA NA "male" "Pre" "PO" "NonPred" "Old"
"1ebbSRddusMUfuZicVGxXhkbI" 5 "4Post2" "The_princess_will_send_the_lion_a_crocodile" "Can_you_send_the_lion_the_crocodile?" "right" "left" "posttest" "7/1/2019" "10:43" "left" 0 3926.135 1 "20/02/15" "English" NA NA "male" "Pre" "PO" "NonPred" "Old"
"1ebbSRddusMUfuZicVGxXhkbI" 6 "5post2" "The_prince_will_bring_the_turtle_a_cat" "Can_you_bring_the_turtle_the_cat?" "right" "left" "posttest" "7/1/2019" "10:43" "left" 0 2953.135 1 "20/02/15" "English" NA NA "male" "Pre" "PO" "NonPred" "Old"
"1ebbSRddusMUfuZicVGxXhkbI" 7 "1Post2" "The_boy_will_send_the_tiger_a_present" "Can_you_send_the_tiger_the_present?" "left" "right" "posttest" "7/1/2019" "10:43" "left" 1 11290.135 1 "20/02/15" "English" NA NA "male" "Pre" "PO" "NonPred" "Old"
"1ebbSRddusMUfuZicVGxXhkbI" 8 "6post2" "Dora_the_explorer_will_throw_the_puppy_a_hamster" "Can_you_throw_puppy_the_hamster?" "right" "left" "posttest" "7/1/2019" "10:43" "left" 0 1961.135 1 "20/02/15" "English" NA NA "male" "Pre" "PO" "NonPred" "Old"
"1ebbSRddusMUfuZicVGxXhkbI" 9 "1fillerpost2" "The_princess_will_tickle_the_teddy_bear_with_the_feather" "Can_you_tickle_the_teddy_bear_with_the_feather?" "left" "right" "posttest_filler" "7/1/2019" "10:43" "left" 1 5875.135 1 "20/02/15" "English" NA NA "male" "Pre" "PO" "NonPred" "Old"
"1ebbSRddusMUfuZicVGxXhkbI" 10 "3post2" "Boots_will_throw_the_giraffe_a_balloon" "Can_you_throw_the_giraffe_the_balloon?" "right" "left" "posttest" "7/1/2019" "10:43" "left" 0 2835.135 1 "20/02/15" "English" NA NA "male" "Pre" "PO" "NonPred" "Old"
"2GHibkOORxf1BEG7fHceuUNve" 1 "4fillerpost2" "The_prince_will_move_the_blanket_to_the_sofa" "Can_you_move_the_blanket_to_the_sofa?" "right" "left" "posttest_filler" "06/05/2019" "14:19" "right" 1 2413.135 1 "10/01/2015" "English" NA NA "female" "Post" "DO" "Pred" "Old"
"2GHibkOORxf1BEG7fHceuUNve" 2 "3fillerpost2" "Dora_the_explorer_will_put_the_food_in_the_basket" "Can_you_put_the_food_in_the_basket?" "left" "right" "posttest_filler" "06/05/2019" "14:19" "left" 1 2073.135 1 "10/01/2015" "English" NA NA "female" "Post" "DO" "Pred" "Old"
"2GHibkOORxf1BEG7fHceuUNve" 3 "5Pre2" "The_queen_will_send_the_monkey_a_horse" "Can_you_send_the_monkey_the_horse?" "right" "left" "pretest" "06/05/2019" "14:19" "right" 1 2379.135 1 "10/01/2015" "English" NA NA "female" "Post" "DO" "Pred" "Old"
"2GHibkOORxf1BEG7fHceuUNve" 4 "1Pre2" "The_boy_will_bring_the_giraffe_a_cake" "Can_you_bring_the_giraffe_the_cake?" "left" "right" "pretest" "06/05/2019" "14:19" "left" 1 947.135 1 "10/01/2015" "English" NA NA "female" "Post" "DO" "Pred" "Old"
"2GHibkOORxf1BEG7fHceuUNve" 5 "1FillerPre2" "Peppa_pig_will_bounce_the_ball_with_the_bat" "Can_you_bounce_the_ball_with_the_bat?" "left" "right" "pretest_filler" "06/05/2019" "14:19" "left" 1 1010.135 1 "10/01/2015" "English" NA NA "female" "Post" "DO" "Pred" "Old"
"2GHibkOORxf1BEG7fHceuUNve" 6 "3Pre2" "Peppa_Pig_will_send_the_hamster_a_toy" "Can_you_send_the_hamster_the_toy?" "left" "right" "pretest" "06/05/2019" "14:19" "right" 0 2737.135 1 "10/01/2015" "English" NA NA "female" "Post" "DO" "Pred" "Old"
"2GHibkOORxf1BEG7fHceuUNve" 7 "2Pre2" "The_girl_will_throw_the_elephant_a_clock" "Can_you_throw_the_elephant_the_clock?" "left" "right" "pretest" "06/05/2019" "14:19" "left" 1 1553.135 1 "10/01/2015" "English" NA NA "female" "Post" "DO" "Pred" "Old"
"2GHibkOORxf1BEG7fHceuUNve" 8 "4Pre2" "The_king_will_throw_the_turtle_a_squirrel" "Can_you_throw_the_turtle_the_squirrel?" "right" "left" "pretest" "06/05/2019" "14:19" "right" 1 2628.135 1 "10/01/2015" "English" NA NA "female" "Post" "DO" "Pred" "Old"
"2GHibkOORxf1BEG7fHceuUNve" 9 "4FillerPre2" "The_king_will_poke_the_jelly_with_the_fork" "Can_you_poke_the_jelly_with_the_fork?" "right" "left" "pretest_filler" "06/05/2019" "14:19" "left" 0 1723.135 1 "10/01/2015" "English" NA NA "female" "Post" "DO" "Pred" "Old"
"2GHibkOORxf1BEG7fHceuUNve" 10 "6Pre2" "Emily_elephant_will_bring_the_mouse_a_rabbit" "Can_you_bring_the_mouse_the_rabbit?" "right" "left" "pretest" "06/05/2019" "14:19" "left" 0 3157.135 1 "10/01/2015" "English" NA NA "female" "Post" "DO" "Pred" "Old"
"2hYJmUF5jJEGGI7LxAbvsImqO" 1 "4fillerpost2" "The_prince_will_move_the_blanket_to_the_sofa" "Can_you_move_the_blanket_to_the_sofa?" "right" "left" "posttest_filler" "6/28/2019" "10:10" "right" 1 2142.135 1 "31/01/2015" "English" NA NA "male" "Post" "PO" "NonPred" "Old"
"2hYJmUF5jJEGGI7LxAbvsImqO" 2 "3fillerpost2" "Dora_the_explorer_will_put_the_food_in_the_basket" "Can_you_put_the_food_in_the_basket?" "left" "right" "posttest_filler" "6/28/2019" "10:10" "left" 1 2711.135 1 "31/01/2015" "English" NA NA "male" "Post" "PO" "NonPred" "Old"
"2hYJmUF5jJEGGI7LxAbvsImqO" 3 "3Pre2" "Peppa_Pig_will_send_the_hamster_a_toy" "Can_you_send_the_hamster_the_toy?" "right" "left" "pretest" "6/28/2019" "10:10" "right" 1 3590.135 1 "31/01/2015" "English" NA NA "male" "Post" "PO" "NonPred" "Old"
"2hYJmUF5jJEGGI7LxAbvsImqO" 4 "1Pre2" "The_boy_will_bring_the_giraffe_a_cake" "Can_you_bring_the_giraffe_the_cake?" "right" "left" "pretest" "6/28/2019" "10:10" "right" 1 3109.135 1 "31/01/2015" "English" NA NA "male" "Post" "PO" "NonPred" "Old"
"2hYJmUF5jJEGGI7LxAbvsImqO" 5 "5Pre2" "The_queen_will_send_the_monkey_a_horse" "Can_you_send_the_monkey_the_horse?" "right" "left" "pretest" "6/28/2019" "10:10" "right" 1 2313.135 1 "31/01/2015" "English" NA NA "male" "Post" "PO" "NonPred" "Old"
"2hYJmUF5jJEGGI7LxAbvsImqO" 6 "6Pre2" "Emily_elephant_will_bring_the_mouse_a_rabbit" "Can_you_bring_the_mouse_the_rabbit?" "left" "right" "pretest" "6/28/2019" "10:10" "right" 0 3498.135 1 "31/01/2015" "English" NA NA "male" "Post" "PO" "NonPred" "Old"
"2hYJmUF5jJEGGI7LxAbvsImqO" 7 "1FillerPre2" "Peppa_pig_will_bounce_the_ball_with_the_bat" "Can_you_bounce_the_ball_with_the_bat?" "left" "right" "pretest_filler" "6/28/2019" "10:10" "left" 1 2557.135 1 "31/01/2015" "English" NA NA "male" "Post" "PO" "NonPred" "Old"
"2hYJmUF5jJEGGI7LxAbvsImqO" 8 "4FillerPre2" "The_king_will_poke_the_jelly_with_the_fork" "Can_you_poke_the_jelly_with_the_fork?" "left" "right" "pretest_filler" "6/28/2019" "10:10" "left" 1 6392.135 1 "31/01/2015" "English" NA NA "male" "Post" "PO" "NonPred" "Old"
"2hYJmUF5jJEGGI7LxAbvsImqO" 9 "2Pre2" "The_girl_will_throw_the_elephant_a_clock" "Can_you_throw_the_elephant_the_clock?" "right" "left" "pretest" "6/28/2019" "10:10" "right" 1 4182.135 1 "31/01/2015" "English" NA NA "male" "Post" "PO" "NonPred" "Old"
"2hYJmUF5jJEGGI7LxAbvsImqO" 10 "4Pre2" "The_king_will_throw_the_turtle_a_squirrel" "Can_you_throw_the_turtle_the_squirrel?" "left" "right" "pretest" "6/28/2019" "10:10" "right" 0 7656.135 1 "31/01/2015" "English" NA NA "male" "Post" "PO" "NonPred" "Old"
"498wbE6Ds1TB31uO9iPg2FSGC" 1 "4fillerpost2" "The_prince_will_move_the_blanket_to_the_sofa" "Can_you_move_the_blanket_to_the_sofa?" "right" "left" "posttest_filler" "6/17/2019" "11:19" "right" 1 1759.135 1 "10/05/2015" "English" "Welsh" NA "female" "Pre" "PO" "Pred" "Old"
"498wbE6Ds1TB31uO9iPg2FSGC" 2 "3fillerpost2" "Dora_the_explorer_will_put_the_food_in_the_basket" "Can_you_put_the_food_in_the_basket?" "left" "right" "posttest_filler" "6/17/2019" "11:19" "left" 1 2175.135 1 "10/05/2015" "English" "Welsh" NA "female" "Pre" "PO" "Pred" "Old"
"498wbE6Ds1TB31uO9iPg2FSGC" 3 "2post2" "The_girl_will_bring_the_horse_an_ice_cream" "Can_you_bring_the_horse_the_ice_cream?" "left" "right" "posttest" "6/17/2019" "11:19" "left" 1 3740.135 1 "10/05/2015" "English" "Welsh" NA "female" "Pre" "PO" "Pred" "Old"
"498wbE6Ds1TB31uO9iPg2FSGC" 4 "3post2" "Boots_will_throw_the_giraffe_a_balloon" "Can_you_throw_the_giraffe_the_balloon?" "left" "right" "posttest" "6/17/2019" "11:19" "right" 0 2073.135 1 "10/05/2015" "English" "Welsh" NA "female" "Pre" "PO" "Pred" "Old"
"498wbE6Ds1TB31uO9iPg2FSGC" 5 "5post2" "The_prince_will_bring_the_turtle_a_cat" "Can_you_bring_the_turtle_the_cat?" "right" "left" "posttest" "6/17/2019" "11:19" "left" 0 935.135 1 "10/05/2015" "English" "Welsh" NA "female" "Pre" "PO" "Pred" "Old"
"498wbE6Ds1TB31uO9iPg2FSGC" 6 "4Post2" "The_princess_will_send_the_lion_a_crocodile" "Can_you_send_the_lion_the_crocodile?" "right" "left" "posttest" "6/17/2019" "11:19" "right" 1 2434.135 1 "10/05/2015" "English" "Welsh" NA "female" "Pre" "PO" "Pred" "Old"
"498wbE6Ds1TB31uO9iPg2FSGC" 7 "2fillerpost2" "Boots_will_clean_the_chair_with_the_sponge" "Can_you_clean_the_chair_with_the_sponge?" "left" "right" "posttest_filler" "6/17/2019" "11:19" "left" 1 2921.135 1 "10/05/2015" "English" "Welsh" NA "female" "Pre" "PO" "Pred" "Old"
"498wbE6Ds1TB31uO9iPg2FSGC" 8 "1fillerpost2" "The_princess_will_tickle_the_teddy_bear_with_the_feather" "Can_you_tickle_the_teddy_bear_with_the_feather?" "left" "right" "posttest_filler" "6/17/2019" "11:19" "left" 1 3409.135 1 "10/05/2015" "English" "Welsh" NA "female" "Pre" "PO" "Pred" "Old"
"498wbE6Ds1TB31uO9iPg2FSGC" 9 "1Post2" "The_boy_will_send_the_tiger_a_present" "Can_you_send_the_tiger_the_present?" "right" "left" "posttest" "6/17/2019" "11:19" "left" 0 1172.135 1 "10/05/2015" "English" "Welsh" NA "female" "Pre" "PO" "Pred" "Old"
"498wbE6Ds1TB31uO9iPg2FSGC" 10 "6post2" "Dora_the_explorer_will_throw_the_puppy_a_hamster" "Can_you_throw_puppy_the_hamster?" "right" "left" "posttest" "6/17/2019" "11:19" "left" 0 1706.135 1 "10/05/2015" "English" "Welsh" NA "female" "Pre" "PO" "Pred" "Old"
"61x4FnXrK9rg95OYskMdijIyJ" 1 "4fillerpost2" "The_prince_will_move_the_blanket_to_the_sofa" "Can_you_move_the_blanket_to_the_sofa?" "right" "left" "posttest_filler" "7/17/2019" "14:31" "right" 1 4349.135 1 "08/11/2013" "English" NA NA "female" "Post" "PO" "Pred" "Old"
"61x4FnXrK9rg95OYskMdijIyJ" 2 "3fillerpost2" "Dora_the_explorer_will_put_the_food_in_the_basket" "Can_you_put_the_food_in_the_basket?" "left" "right" "posttest_filler" "7/17/2019" "14:31" "left" 1 2592.135 1 "" "English" NA NA "female" "Post" "PO" "Pred" "Old"
"61x4FnXrK9rg95OYskMdijIyJ" 3 "4FillerPre2" "The_king_will_poke_the_jelly_with_the_fork" "Can_you_poke_the_jelly_with_the_fork?" "left" "right" "pretest_filler" "7/17/2019" "14:31" "right" 0 2246.135 1 "08/11/2013" "English" NA NA "female" "Post" "PO" "Pred" "Old"
"61x4FnXrK9rg95OYskMdijIyJ" 4 "4Pre2" "The_king_will_throw_the_turtle_a_squirrel" "Can_you_throw_the_turtle_the_squirrel?" "right" "left" "pretest" "7/17/2019" "14:31" "left" 0 1703.135 1 "08/11/2013" "English" NA NA "female" "Post" "PO" "Pred" "Old"
"61x4FnXrK9rg95OYskMdijIyJ" 5 "1FillerPre2" "Peppa_pig_will_bounce_the_ball_with_the_bat" "Can_you_bounce_the_ball_with_the_bat?" "left" "right" "pretest_filler" "7/17/2019" "14:31" "right" 0 2554.135 1 "08/11/2013" "English" NA NA "female" "Post" "PO" "Pred" "Old"
"61x4FnXrK9rg95OYskMdijIyJ" 6 "2Pre2" "The_girl_will_throw_the_elephant_a_clock" "Can_you_throw_the_elephant_the_clock?" "left" "right" "pretest" "7/17/2019" "14:31" "right" 0 3190.135 1 "08/11/2013" "English" NA NA "female" "Post" "PO" "Pred" "Old"
"61x4FnXrK9rg95OYskMdijIyJ" 7 "3Pre2" "Peppa_Pig_will_send_the_hamster_a_toy" "Can_you_send_the_hamster_the_toy?" "left" "right" "pretest" "7/17/2019" "14:31" "right" 0 5014.135 1 "08/11/2013" "English" NA NA "female" "Post" "PO" "Pred" "Old"
"61x4FnXrK9rg95OYskMdijIyJ" 8 "1Pre2" "The_boy_will_bring_the_giraffe_a_cake" "Can_you_bring_the_giraffe_the_cake?" "right" "left" "pretest" "7/17/2019" "14:31" "left" 0 2398.135 1 "08/11/2013" "English" NA NA "female" "Post" "PO" "Pred" "Old"
"61x4FnXrK9rg95OYskMdijIyJ" 9 "6Pre2" "Emily_elephant_will_bring_the_mouse_a_rabbit" "Can_you_bring_the_mouse_the_rabbit?" "right" "left" "pretest" "7/17/2019" "14:31" "left" 0 1731.135 1 "08/11/2013" "English" NA NA "female" "Post" "PO" "Pred" "Old"
"61x4FnXrK9rg95OYskMdijIyJ" 10 "5Pre2" "The_queen_will_send_the_monkey_a_horse" "Can_you_send_the_monkey_the_horse?" "right" "left" "pretest" "7/17/2019" "14:31" "left" 0 3940.135 1 "08/11/2013" "English" NA NA "female" "Post" "PO" "Pred" "Old"
"7MSbwhpozV3MbVAdES2Ot3Yed" 1 "4fillerpost2" "The_prince_will_move_the_blanket_to_the_sofa" "Can_you_move_the_blanket_to_the_sofa?" "right" "left" "posttest_filler" "7/17/2019" "14:12" "right" 1 1992.135 1 "30/11/2013" "English" NA NA "female" "Pre" "PO" "NonPred" "Old"
"7MSbwhpozV3MbVAdES2Ot3Yed" 2 "3fillerpost2" "Dora_the_explorer_will_put_the_food_in_the_basket" "Can_you_put_the_food_in_the_basket?" "left" "right" "posttest_filler" "7/17/2019" "14:12" "left" 1 2612.135 1 "30/11/2013" "English" NA NA "female" "Pre" "PO" "NonPred" "Old"
"7MSbwhpozV3MbVAdES2Ot3Yed" 3 "6post2" "Dora_the_explorer_will_throw_the_puppy_a_hamster" "Can_you_throw_puppy_the_hamster?" "left" "right" "posttest" "7/17/2019" "14:12" "left" 1 1568.135 1 "30/11/2013" "English" NA NA "female" "Pre" "PO" "NonPred" "Old"
"7MSbwhpozV3MbVAdES2Ot3Yed" 4 "1fillerpost2" "The_princess_will_tickle_the_teddy_bear_with_the_feather" "Can_you_tickle_the_teddy_bear_with_the_feather?" "left" "right" "posttest_filler" "7/17/2019" "14:12" "left" 1 3267.135 1 "30/11/2013" "English" NA NA "female" "Pre" "PO" "NonPred" "Old"
"7MSbwhpozV3MbVAdES2Ot3Yed" 5 "4Post2" "The_princess_will_send_the_lion_a_crocodile" "Can_you_send_the_lion_the_crocodile?" "right" "left" "posttest" "7/17/2019" "14:12" "right" 1 3961.135 1 "30/11/2013" "English" NA NA "female" "Pre" "PO" "NonPred" "Old"
"7MSbwhpozV3MbVAdES2Ot3Yed" 6 "2post2" "The_girl_will_bring_the_horse_an_ice_cream" "Can_you_bring_the_horse_the_ice_cream?" "left" "right" "posttest" "7/17/2019" "14:12" "left" 1 1802.135 1 "30/11/2013" "English" NA NA "female" "Pre" "PO" "NonPred" "Old"
"7MSbwhpozV3MbVAdES2Ot3Yed" 7 "1Post2" "The_boy_will_send_the_tiger_a_present" "Can_you_send_the_tiger_the_present?" "right" "left" "posttest" "7/17/2019" "14:12" "right" 1 2110.135 1 "30/11/2013" "English" NA NA "female" "Pre" "PO" "NonPred" "Old"
"7MSbwhpozV3MbVAdES2Ot3Yed" 8 "3post2" "Boots_will_throw_the_giraffe_a_balloon" "Can_you_throw_the_giraffe_the_balloon?" "right" "left" "posttest" "7/17/2019" "14:12" "right" 1 584.135 1 "30/11/2013" "English" NA NA "female" "Pre" "PO" "NonPred" "Old"
"7MSbwhpozV3MbVAdES2Ot3Yed" 9 "2fillerpost2" "Boots_will_clean_the_chair_with_the_sponge" "Can_you_clean_the_chair_with_the_sponge?" "right" "left" "posttest_filler" "7/17/2019" "14:12" "right" 1 3253.135 1 "30/11/2013" "English" NA NA "female" "Pre" "PO" "NonPred" "Old"
"7MSbwhpozV3MbVAdES2Ot3Yed" 10 "5post2" "The_prince_will_bring_the_turtle_a_cat" "Can_you_bring_the_turtle_the_cat?" "left" "right" "posttest" "7/17/2019" "14:12" "left" 1 1211.135 1 "30/11/2013" "English" NA NA "female" "Pre" "PO" "NonPred" "Old"
"7VD7Nx9teJprkUcPfXD2yLYyi" 1 "4fillerpost2" "The_prince_will_move_the_blanket_to_the_sofa" "Can_you_move_the_blanket_to_the_sofa?" "right" "left" "posttest_filler" "7/18/2019" "13:41" "right" 1 3968.135 1 "10/12/14" "English" NA NA "male" "Post" "PO" "NonPred" "Old"
"7VD7Nx9teJprkUcPfXD2yLYyi" 2 "3fillerpost2" "Dora_the_explorer_will_put_the_food_in_the_basket" "Can_you_put_the_food_in_the_basket?" "left" "right" "posttest_filler" "7/18/2019" "13:41" "left" 1 1996.135 1 "10/12/14" "English" NA NA "male" "Post" "PO" "NonPred" "Old"
"7VD7Nx9teJprkUcPfXD2yLYyi" 3 "1FillerPre2" "Peppa_pig_will_bounce_the_ball_with_the_bat" "Can_you_bounce_the_ball_with_the_bat?" "right" "left" "pretest_filler" "7/18/2019" "13:41" "left" 0 1497.135 1 "10/12/14" "English" NA NA "male" "Post" "PO" "NonPred" "Old"
"7VD7Nx9teJprkUcPfXD2yLYyi" 4 "4Pre2" "The_king_will_throw_the_turtle_a_squirrel" "Can_you_throw_the_turtle_the_squirrel?" "left" "right" "pretest" "7/18/2019" "13:41" "right" 0 840.135 1 "10/12/14" "English" NA NA "male" "Post" "PO" "NonPred" "Old"
"7VD7Nx9teJprkUcPfXD2yLYyi" 5 "5Pre2" "The_queen_will_send_the_monkey_a_horse" "Can_you_send_the_monkey_the_horse?" "right" "left" "pretest" "7/18/2019" "13:41" "right" 1 2593.135 1 "10/12/14" "English" NA NA "male" "Post" "PO" "NonPred" "Old"
"7VD7Nx9teJprkUcPfXD2yLYyi" 6 "3Pre2" "Peppa_Pig_will_send_the_hamster_a_toy" "Can_you_send_the_hamster_the_toy?" "right" "left" "pretest" "7/18/2019" "13:41" "right" 1 1561.135 1 "10/12/14" "English" NA NA "male" "Post" "PO" "NonPred" "Old"
"7VD7Nx9teJprkUcPfXD2yLYyi" 7 "2Pre2" "The_girl_will_throw_the_elephant_a_clock" "Can_you_throw_the_elephant_the_clock?" "left" "right" "pretest" "7/18/2019" "13:41" "left" 1 6901.135 1 "10/12/14" "English" NA NA "male" "Post" "PO" "NonPred" "Old"
"7VD7Nx9teJprkUcPfXD2yLYyi" 8 "4FillerPre2" "The_king_will_poke_the_jelly_with_the_fork" "Can_you_poke_the_jelly_with_the_fork?" "left" "right" "pretest_filler" "7/18/2019" "13:41" "left" 1 8374.135 1 "10/12/14" "English" NA NA "male" "Post" "PO" "NonPred" "Old"
"7VD7Nx9teJprkUcPfXD2yLYyi" 9 "6Pre2" "Emily_elephant_will_bring_the_mouse_a_rabbit" "Can_you_bring_the_mouse_the_rabbit?" "right" "left" "pretest" "7/18/2019" "13:41" "right" 1 3983.135 1 "10/12/14" "English" NA NA "male" "Post" "PO" "NonPred" "Old"
"7VD7Nx9teJprkUcPfXD2yLYyi" 10 "1Pre2" "The_boy_will_bring_the_giraffe_a_cake" "Can_you_bring_the_giraffe_the_cake?" "left" "right" "pretest" "7/18/2019" "13:41" "left" 1 6310.135 1 "10/12/14" "English" NA NA "male" "Post" "PO" "NonPred" "Old"
"8j4VM43BeCn8rJgGNRSr36Zqu" 1 "4fillerpost2" "The_prince_will_move_the_blanket_to_the_sofa" "Can_you_move_the_blanket_to_the_sofa?" "right" "left" "posttest_filler" "7/1/2019" "09:58" "right" 1 1660.135 1 "20/05/15" "English" NA NA "male" "Post" "PO" "Pred" "Old"
"8j4VM43BeCn8rJgGNRSr36Zqu" 2 "3fillerpost2" "Dora_the_explorer_will_put_the_food_in_the_basket" "Can_you_put_the_food_in_the_basket?" "left" "right" "posttest_filler" "7/1/2019" "09:58" "left" 1 1084.135 1 "20/05/15" "English" NA NA "male" "Post" "PO" "Pred" "Old"
"8j4VM43BeCn8rJgGNRSr36Zqu" 3 "4FillerPre2" "The_king_will_poke_the_jelly_with_the_fork" "Can_you_poke_the_jelly_with_the_fork?" "right" "left" "pretest_filler" "7/1/2019" "09:58" "right" 1 1963.135 1 "20/05/15" "English" NA NA "male" "Post" "PO" "Pred" "Old"
"8j4VM43BeCn8rJgGNRSr36Zqu" 4 "4Pre2" "The_king_will_throw_the_turtle_a_squirrel" "Can_you_throw_the_turtle_the_squirrel?" "left" "right" "pretest" "7/1/2019" "09:58" "right" 0 978.135 1 "20/05/15" "English" NA NA "male" "Post" "PO" "Pred" "Old"
"8j4VM43BeCn8rJgGNRSr36Zqu" 5 "1FillerPre2" "Peppa_pig_will_bounce_the_ball_with_the_bat" "Can_you_bounce_the_ball_with_the_bat?" "left" "right" "pretest_filler" "7/1/2019" "09:58" "right" 0 3366.135 1 "20/05/15" "English" NA NA "male" "Post" "PO" "Pred" "Old"
"8j4VM43BeCn8rJgGNRSr36Zqu" 6 "1Pre2" "The_boy_will_bring_the_giraffe_a_cake" "Can_you_bring_the_giraffe_the_cake?" "left" "right" "pretest" "7/1/2019" "09:58" "left" 1 1281.135 1 "20/05/15" "English" NA NA "male" "Post" "PO" "Pred" "Old"
"8j4VM43BeCn8rJgGNRSr36Zqu" 7 "5Pre2" "The_queen_will_send_the_monkey_a_horse" "Can_you_send_the_monkey_the_horse?" "right" "left" "pretest" "7/1/2019" "09:58" "right" 1 1708.135 1 "20/05/15" "English" NA NA "male" "Post" "PO" "Pred" "Old"
"8j4VM43BeCn8rJgGNRSr36Zqu" 8 "6Pre2" "Emily_elephant_will_bring_the_mouse_a_rabbit" "Can_you_bring_the_mouse_the_rabbit?" "right" "left" "pretest" "7/1/2019" "09:58" "left" 0 1550.135 1 "20/05/15" "English" NA NA "male" "Post" "PO" "Pred" "Old"
"8j4VM43BeCn8rJgGNRSr36Zqu" 9 "2Pre2" "The_girl_will_throw_the_elephant_a_clock" "Can_you_throw_the_elephant_the_clock?" "right" "left" "pretest" "7/1/2019" "09:58" "right" 1 2877.135 1 "20/05/15" "English" NA NA "male" "Post" "PO" "Pred" "Old"
"8j4VM43BeCn8rJgGNRSr36Zqu" 10 "3Pre2" "Peppa_Pig_will_send_the_hamster_a_toy" "Can_you_send_the_hamster_the_toy?" "left" "right" "pretest" "7/1/2019" "09:58" "right" 0 1788.135 1 "20/05/15" "English" NA NA "male" "Post" "PO" "Pred" "Old"
"8jgAPlNrNhf7NHal2NhRU5cKP" 1 "4fillerpost2" "The_prince_will_move_the_blanket_to_the_sofa" "Can_you_move_the_blanket_to_the_sofa?" "right" "left" "posttest_filler" "07/08/2019" "10:40" "right" 1 1858.135 1 "23/03/2015" "English" NA NA "female" "Pre" "DO" "Pred" "Old"
"8jgAPlNrNhf7NHal2NhRU5cKP" 2 "3fillerpost2" "Dora_the_explorer_will_put_the_food_in_the_basket" "Can_you_put_the_food_in_the_basket?" "left" "right" "posttest_filler" "07/08/2019" "10:40" "left" 1 2765.135 1 "23/03/2015" "English" NA NA "female" "Pre" "DO" "Pred" "Old"
"8jgAPlNrNhf7NHal2NhRU5cKP" 3 "4Post2" "The_princess_will_send_the_lion_a_crocodile" "Can_you_send_the_lion_the_crocodile?" "left" "right" "posttest" "07/08/2019" "10:40" "left" 1 1488.135 1 "23/03/2015" "English" NA NA "female" "Pre" "DO" "Pred" "Old"
"8jgAPlNrNhf7NHal2NhRU5cKP" 4 "2post2" "The_girl_will_bring_the_horse_an_ice_cream" "Can_you_bring_the_horse_the_ice_cream?" "right" "left" "posttest" "07/08/2019" "10:40" "right" 1 3280.135 1 "23/03/2015" "English" NA NA "female" "Pre" "DO" "Pred" "Old"
"8jgAPlNrNhf7NHal2NhRU5cKP" 5 "2fillerpost2" "Boots_will_clean_the_chair_with_the_sponge" "Can_you_clean_the_chair_with_the_sponge?" "left" "right" "posttest_filler" "07/08/2019" "10:40" "left" 1 5592.135 1 "23/03/2015" "English" NA NA "female" "Pre" "DO" "Pred" "Old"
"8jgAPlNrNhf7NHal2NhRU5cKP" 6 "5post2" "The_prince_will_bring_the_turtle_a_cat" "Can_you_bring_the_turtle_the_cat?" "right" "left" "posttest" "07/08/2019" "10:40" "left" 0 4858.135 1 "23/03/2015" "English" NA NA "female" "Pre" "DO" "Pred" "Old"
"8jgAPlNrNhf7NHal2NhRU5cKP" 7 "6post2" "Dora_the_explorer_will_throw_the_puppy_a_hamster" "Can_you_throw_puppy_the_hamster?" "left" "right" "posttest" "07/08/2019" "10:40" "left" 1 1079.135 1 "23/03/2015" "English" NA NA "female" "Pre" "DO" "Pred" "Old"
"8jgAPlNrNhf7NHal2NhRU5cKP" 8 "1Post2" "The_boy_will_send_the_tiger_a_present" "Can_you_send_the_tiger_the_present?" "right" "left" "posttest" "07/08/2019" "10:40" "right" 1 2469.135 1 "23/03/2015" "English" NA NA "female" "Pre" "DO" "Pred" "Old"
"8jgAPlNrNhf7NHal2NhRU5cKP" 9 "3post2" "Boots_will_throw_the_giraffe_a_balloon" "Can_you_throw_the_giraffe_the_balloon?" "left" "right" "posttest" "07/08/2019" "10:40" "left" 1 745.135 1 "23/03/2015" "English" NA NA "female" "Pre" "DO" "Pred" "Old"
"8jgAPlNrNhf7NHal2NhRU5cKP" 10 "1fillerpost2" "The_princess_will_tickle_the_teddy_bear_with_the_feather" "Can_you_tickle_the_teddy_bear_with_the_feather?" "right" "left" "posttest_filler" "07/08/2019" "10:40" "left" 0 1617.135 1 "23/03/2015" "English" NA NA "female" "Pre" "DO" "Pred" "Old"
"9oOzdNvMMW6vNEGycT3BoCh0X" 1 "4fillerpost2" "The_prince_will_move_the_blanket_to_the_sofa" "Can_you_move_the_blanket_to_the_sofa?" "right" "left" "posttest_filler" "7/18/2019" "12:47" "right" 1 3041.135 1 "06/02/15" "English" NA NA "Female" "Pre" "PO" "NonPred" "Old"
"9oOzdNvMMW6vNEGycT3BoCh0X" 2 "3fillerpost2" "Dora_the_explorer_will_put_the_food_in_the_basket" "Can_you_put_the_food_in_the_basket?" "left" "right" "posttest_filler" "7/18/2019" "12:47" "left" 1 4227.135 1 "06/02/15" "English" NA NA "Female" "Pre" "PO" "NonPred" "Old"
"9oOzdNvMMW6vNEGycT3BoCh0X" 3 "4Post2" "The_princess_will_send_the_lion_a_crocodile" "Can_you_send_the_lion_the_crocodile?" "left" "right" "posttest" "7/18/2019" "12:47" "left" 1 2341.135 1 "06/02/15" "English" NA NA "Female" "Pre" "PO" "NonPred" "Old"
"9oOzdNvMMW6vNEGycT3BoCh0X" 4 "2fillerpost2" "Boots_will_clean_the_chair_with_the_sponge" "Can_you_clean_the_chair_with_the_sponge?" "right" "left" "posttest_filler" "7/18/2019" "12:47" "right" 1 2430.135 1 "06/02/15" "English" NA NA "Female" "Pre" "PO" "NonPred" "Old"
"9oOzdNvMMW6vNEGycT3BoCh0X" 5 "1Post2" "The_boy_will_send_the_tiger_a_present" "Can_you_send_the_tiger_the_present?" "left" "right" "posttest" "7/18/2019" "12:47" "left" 1 1457.135 1 "06/02/15" "English" NA NA "Female" "Pre" "PO" "NonPred" "Old"
"9oOzdNvMMW6vNEGycT3BoCh0X" 6 "6post2" "Dora_the_explorer_will_throw_the_puppy_a_hamster" "Can_you_throw_puppy_the_hamster?" "right" "left" "posttest" "7/18/2019" "12:47" "right" 1 1875.135 1 "06/02/15" "English" NA NA "Female" "Pre" "PO" "NonPred" "Old"
"9oOzdNvMMW6vNEGycT3BoCh0X" 7 "1fillerpost2" "The_princess_will_tickle_the_teddy_bear_with_the_feather" "Can_you_tickle_the_teddy_bear_with_the_feather?" "right" "left" "posttest_filler" "7/18/2019" "12:47" "right" 1 2119.135 1 "06/02/15" "English" NA NA "Female" "Pre" "PO" "NonPred" "Old"
"9oOzdNvMMW6vNEGycT3BoCh0X" 8 "5post2" "The_prince_will_bring_the_turtle_a_cat" "Can_you_bring_the_turtle_the_cat?" "right" "left" "posttest" "7/18/2019" "12:47" "right" 1 2029.135 1 "06/02/15" "English" NA NA "Female" "Pre" "PO" "NonPred" "Old"
"9oOzdNvMMW6vNEGycT3BoCh0X" 9 "2post2" "The_girl_will_bring_the_horse_an_ice_cream" "Can_you_bring_the_horse_the_ice_cream?" "left" "right" "posttest" "7/18/2019" "12:47" "left" 1 1612.135 1 "06/02/15" "English" NA NA "Female" "Pre" "PO" "NonPred" "Old"
"9oOzdNvMMW6vNEGycT3BoCh0X" 10 "3post2" "Boots_will_throw_the_giraffe_a_balloon" "Can_you_throw_the_giraffe_the_balloon?" "left" "right" "posttest" "7/18/2019" "12:47" "left" 1 1990.135 1 "06/02/15" "English" NA NA "Female" "Pre" "PO" "NonPred" "Old"
"ADXIiawnQr5yIJGK7wAHFuoWo" 1 "4fillerpost2" "The_prince_will_move_the_blanket_to_the_sofa" "Can_you_move_the_blanket_to_the_sofa?" "right" "left" "posttest_filler" "4/17/2019" "12:56" "right" 1 2612.135 1 "04/09/2014" "English" NA NA "male" "Post" "DO" "Pred" "Old"
"ADXIiawnQr5yIJGK7wAHFuoWo" 2 "3fillerpost2" "Dora_the_explorer_will_put_the_food_in_the_basket" "Can_you_put_the_food_in_the_basket?" "left" "right" "posttest_filler" "4/17/2019" "12:56" "left" 1 1755.135 1 "04/09/2014" "English" NA NA "male" "Post" "DO" "Pred" "Old"
"ADXIiawnQr5yIJGK7wAHFuoWo" 3 "1FillerPre2" "Peppa_pig_will_bounce_the_ball_with_the_bat" "Can_you_bounce_the_ball_with_the_bat?" "left" "right" "pretest_filler" "4/17/2019" "12:56" "right" 0 7077.135 1 "04/09/2014" "English" NA NA "male" "Post" "DO" "Pred" "Old"
"ADXIiawnQr5yIJGK7wAHFuoWo" 4 "4FillerPre2" "The_king_will_poke_the_jelly_with_the_fork" "Can_you_poke_the_jelly_with_the_fork?" "right" "left" "pretest_filler" "4/17/2019" "12:56" "right" 1 5744.135 1 "04/09/2014" "English" NA NA "male" "Post" "DO" "Pred" "Old"
"ADXIiawnQr5yIJGK7wAHFuoWo" 5 "5Pre2" "The_queen_will_send_the_monkey_a_horse" "Can_you_send_the_monkey_the_horse?" "right" "left" "pretest" "4/17/2019" "12:56" "left" 0 1144.135 1 "04/09/2014" "English" NA NA "male" "Post" "DO" "Pred" "Old"
"ADXIiawnQr5yIJGK7wAHFuoWo" 6 "1Pre2" "The_boy_will_bring_the_giraffe_a_cake" "Can_you_bring_the_giraffe_the_cake?" "right" "left" "pretest" "4/17/2019" "12:56" "left" 0 2290.135 1 "04/09/2014" "English" NA NA "male" "Post" "DO" "Pred" "Old"
"ADXIiawnQr5yIJGK7wAHFuoWo" 7 "3Pre2" "Peppa_Pig_will_send_the_hamster_a_toy" "Can_you_send_the_hamster_the_toy?" "left" "right" "pretest" "4/17/2019" "12:56" "right" 0 1178.135 1 "04/09/2014" "English" NA NA "male" "Post" "DO" "Pred" "Old"
"ADXIiawnQr5yIJGK7wAHFuoWo" 8 "4Pre2" "The_king_will_throw_the_turtle_a_squirrel" "Can_you_throw_the_turtle_the_squirrel?" "left" "right" "pretest" "4/17/2019" "12:56" "right" 0 8398.135 1 "04/09/2014" "English" NA NA "male" "Post" "DO" "Pred" "Old"
"ADXIiawnQr5yIJGK7wAHFuoWo" 9 "2Pre2" "The_girl_will_throw_the_elephant_a_clock" "Can_you_throw_the_elephant_the_clock?" "left" "right" "pretest" "4/17/2019" "12:56" "left" 1 4261.135 1 "04/09/2014" "English" NA NA "male" "Post" "DO" "Pred" "Old"
"ADXIiawnQr5yIJGK7wAHFuoWo" 10 "6Pre2" "Emily_elephant_will_bring_the_mouse_a_rabbit" "Can_you_bring_the_mouse_the_rabbit?" "right" "left" "pretest" "4/17/2019" "12:56" "right" 1 2101.135 1 "04/09/2014" "English" NA NA "male" "Post" "DO" "Pred" "Old"
"AvrWsudy6bn6efmJizjfrJFJh" 1 "4fillerpost2" "The_prince_will_move_the_blanket_to_the_sofa" "Can_you_move_the_blanket_to_the_sofa?" "right" "left" "posttest_filler" "6/25/2019" "09:21" "right" 1 2131.135 1 "25/07/2014" "English" NA NA "female" "Post" "PO" "Pred" "Old"
"AvrWsudy6bn6efmJizjfrJFJh" 2 "3fillerpost2" "Dora_the_explorer_will_put_the_food_in_the_basket" "Can_you_put_the_food_in_the_basket?" "left" "right" "posttest_filler" "6/25/2019" "09:21" "left" 1 1913.135 1 "25/07/2014" "English" NA NA "female" "Post" "PO" "Pred" "Old"
"AvrWsudy6bn6efmJizjfrJFJh" 3 "1FillerPre2" "Peppa_pig_will_bounce_the_ball_with_the_bat" "Can_you_bounce_the_ball_with_the_bat?" "right" "left" "pretest_filler" "6/25/2019" "09:21" "left" 0 1117.135 1 "25/07/2014" "English" NA NA "female" "Post" "PO" "Pred" "Old"
"AvrWsudy6bn6efmJizjfrJFJh" 4 "3Pre2" "Peppa_Pig_will_send_the_hamster_a_toy" "Can_you_send_the_hamster_the_toy?" "right" "left" "pretest" "6/25/2019" "09:21" "left" 0 1582.135 1 "25/07/2014" "English" NA NA "female" "Post" "PO" "Pred" "Old"
"AvrWsudy6bn6efmJizjfrJFJh" 5 "4FillerPre2" "The_king_will_poke_the_jelly_with_the_fork" "Can_you_poke_the_jelly_with_the_fork?" "left" "right" "pretest_filler" "6/25/2019" "09:21" "left" 1 3198.135 1 "25/07/2014" "English" NA NA "female" "Post" "PO" "Pred" "Old"
"AvrWsudy6bn6efmJizjfrJFJh" 6 "1Pre2" "The_boy_will_bring_the_giraffe_a_cake" "Can_you_bring_the_giraffe_the_cake?" "right" "left" "pretest" "6/25/2019" "09:21" "left" 0 1080.135 1 "25/07/2014" "English" NA NA "female" "Post" "PO" "Pred" "Old"
"AvrWsudy6bn6efmJizjfrJFJh" 7 "6Pre2" "Emily_elephant_will_bring_the_mouse_a_rabbit" "Can_you_bring_the_mouse_the_rabbit?" "left" "right" "pretest" "6/25/2019" "09:21" "right" 0 1941.135 1 "25/07/2014" "English" NA NA "female" "Post" "PO" "Pred" "Old"
"AvrWsudy6bn6efmJizjfrJFJh" 8 "4Pre2" "The_king_will_throw_the_turtle_a_squirrel" "Can_you_throw_the_turtle_the_squirrel?" "right" "left" "pretest" "6/25/2019" "09:21" "right" 1 4966.135 1 "25/07/2014" "English" NA NA "female" "Post" "PO" "Pred" "Old"
"AvrWsudy6bn6efmJizjfrJFJh" 9 "5Pre2" "The_queen_will_send_the_monkey_a_horse" "Can_you_send_the_monkey_the_horse?" "left" "right" "pretest" "6/25/2019" "09:21" "right" 0 2551.135 1 "25/07/2014" "English" NA NA "female" "Post" "PO" "Pred" "Old"
"AvrWsudy6bn6efmJizjfrJFJh" 10 "2Pre2" "The_girl_will_throw_the_elephant_a_clock" "Can_you_throw_the_elephant_the_clock?" "left" "right" "pretest" "6/25/2019" "09:21" "right" 0 2190.135 1 "25/07/2014" "English" NA NA "female" "Post" "PO" "Pred" "Old"
"AX082cIs5N5jjZORvfNQmWpNp" 1 "4fillerpost2" "The_prince_will_move_the_blanket_to_the_sofa" "Can_you_move_the_blanket_to_the_sofa?" "right" "left" "posttest_filler" "4/24/2019" "11:53" "right" 1 3116.135 1 "25/09/2014" "English" NA NA "female" "Post" "PO" "Pred" "Old"
"AX082cIs5N5jjZORvfNQmWpNp" 2 "3fillerpost2" "Dora_the_explorer_will_put_the_food_in_the_basket" "Can_you_put_the_food_in_the_basket?" "left" "right" "posttest_filler" "4/24/2019" "11:53" "left" 1 3538.135 1 "25/09/2014" "English" NA NA "female" "Post" "PO" "Pred" "Old"
"AX082cIs5N5jjZORvfNQmWpNp" 3 "5Pre2" "The_queen_will_send_the_monkey_a_horse" "Can_you_send_the_monkey_the_horse?" "left" "right" "pretest" "4/24/2019" "11:53" "left" 1 1934.135 1 "25/09/2014" "English" NA NA "female" "Post" "PO" "Pred" "Old"
"AX082cIs5N5jjZORvfNQmWpNp" 4 "4Pre2" "The_king_will_throw_the_turtle_a_squirrel" "Can_you_throw_the_turtle_the_squirrel?" "right" "left" "pretest" "4/24/2019" "11:53" "right" 1 31572.135 1 "25/09/2014" "English" NA NA "female" "Post" "PO" "Pred" "Old"
"AX082cIs5N5jjZORvfNQmWpNp" 5 "4FillerPre2" "The_king_will_poke_the_jelly_with_the_fork" "Can_you_poke_the_jelly_with_the_fork?" "left" "right" "pretest_filler" "4/24/2019" "11:53" "left" 1 2777.135 1 "25/09/2014" "English" NA NA "female" "Post" "PO" "Pred" "Old"
"AX082cIs5N5jjZORvfNQmWpNp" 6 "3Pre2" "Peppa_Pig_will_send_the_hamster_a_toy" "Can_you_send_the_hamster_the_toy?" "right" "left" "pretest" "4/24/2019" "11:53" "right" 1 3522.135 1 "25/09/2014" "English" NA NA "female" "Post" "PO" "Pred" "Old"
"AX082cIs5N5jjZORvfNQmWpNp" 7 "2Pre2" "The_girl_will_throw_the_elephant_a_clock" "Can_you_throw_the_elephant_the_clock?" "left" "right" "pretest" "4/24/2019" "11:53" "left" 1 1916.135 1 "25/09/2014" "English" NA NA "female" "Post" "PO" "Pred" "Old"
"AX082cIs5N5jjZORvfNQmWpNp" 8 "1Pre2" "The_boy_will_bring_the_giraffe_a_cake" "Can_you_bring_the_giraffe_the_cake?" "left" "right" "pretest" "4/24/2019" "11:53" "left" 1 5181.135 1 "25/09/2014" "English" NA NA "female" "Post" "PO" "Pred" "Old"
"AX082cIs5N5jjZORvfNQmWpNp" 9 "6Pre2" "Emily_elephant_will_bring_the_mouse_a_rabbit" "Can_you_bring_the_mouse_the_rabbit?" "right" "left" "pretest" "4/24/2019" "11:53" "right" 1 4910.135 1 "25/09/2014" "English" NA NA "female" "Post" "PO" "Pred" "Old"
"AX082cIs5N5jjZORvfNQmWpNp" 10 "1FillerPre2" "Peppa_pig_will_bounce_the_ball_with_the_bat" "Can_you_bounce_the_ball_with_the_bat?" "right" "left" "pretest_filler" "4/24/2019" "11:53" "right" 1 3403.135 1 "25/09/2014" "English" NA NA "female" "Post" "PO" "Pred" "Old"
"CcaRecvQJxLPFcSqlx9GAxcDv" 1 "4fillerpost2" "The_prince_will_move_the_blanket_to_the_sofa" "Can_you_move_the_blanket_to_the_sofa?" "right" "left" "posttest_filler" "7/17/2019" "10:36" "right" 1 2834.135 1 "24/09/2014" "English" NA NA "male" "Post" "DO" "Pred" "Old"
"CcaRecvQJxLPFcSqlx9GAxcDv" 2 "3fillerpost2" "Dora_the_explorer_will_put_the_food_in_the_basket" "Can_you_put_the_food_in_the_basket?" "left" "right" "posttest_filler" "7/17/2019" "10:36" "left" 1 1444.135 1 "24/09/2014" "English" NA NA "male" "Post" "DO" "Pred" "Old"
"CcaRecvQJxLPFcSqlx9GAxcDv" 3 "5Pre2" "The_queen_will_send_the_monkey_a_horse" "Can_you_send_the_monkey_the_horse?" "left" "right" "pretest" "7/17/2019" "10:36" "right" 0 1462.135 1 "24/09/2014" "English" NA NA "male" "Post" "DO" "Pred" "Old"
"CcaRecvQJxLPFcSqlx9GAxcDv" 4 "1Pre2" "The_boy_will_bring_the_giraffe_a_cake" "Can_you_bring_the_giraffe_the_cake?" "left" "right" "pretest" "7/17/2019" "10:36" "right" 0 2229.135 1 "24/09/2014" "English" NA NA "male" "Post" "DO" "Pred" "Old"
"CcaRecvQJxLPFcSqlx9GAxcDv" 5 "2Pre2" "The_girl_will_throw_the_elephant_a_clock" "Can_you_throw_the_elephant_the_clock?" "right" "left" "pretest" "7/17/2019" "10:36" "right" 1 3520.135 1 "24/09/2014" "English" NA NA "male" "Post" "DO" "Pred" "Old"
"CcaRecvQJxLPFcSqlx9GAxcDv" 6 "3Pre2" "Peppa_Pig_will_send_the_hamster_a_toy" "Can_you_send_the_hamster_the_toy?" "left" "right" "pretest" "7/17/2019" "10:36" "left" 1 1684.135 1 "24/09/2014" "English" NA NA "male" "Post" "DO" "Pred" "Old"
"CcaRecvQJxLPFcSqlx9GAxcDv" 7 "6Pre2" "Emily_elephant_will_bring_the_mouse_a_rabbit" "Can_you_bring_the_mouse_the_rabbit?" "right" "left" "pretest" "7/17/2019" "10:36" "right" 1 1753.135 1 "24/09/2014" "English" NA NA "male" "Post" "DO" "Pred" "Old"
"CcaRecvQJxLPFcSqlx9GAxcDv" 8 "4Pre2" "The_king_will_throw_the_turtle_a_squirrel" "Can_you_throw_the_turtle_the_squirrel?" "left" "right" "pretest" "7/17/2019" "10:36" "right" 0 1294.135 1 "24/09/2014" "English" NA NA "male" "Post" "DO" "Pred" "Old"
"CcaRecvQJxLPFcSqlx9GAxcDv" 9 "1FillerPre2" "Peppa_pig_will_bounce_the_ball_with_the_bat" "Can_you_bounce_the_ball_with_the_bat?" "right" "left" "pretest_filler" "7/17/2019" "10:36" "left" 0 5402.135 1 "24/09/2014" "English" NA NA "male" "Post" "DO" "Pred" "Old"
"CcaRecvQJxLPFcSqlx9GAxcDv" 10 "4FillerPre2" "The_king_will_poke_the_jelly_with_the_fork" "Can_you_poke_the_jelly_with_the_fork?" "right" "left" "pretest_filler" "7/17/2019" "10:36" "right" 1 4225.135 1 "24/09/2014" "English" NA NA "male" "Post" "DO" "Pred" "Old"
"Co8n5Rdiwg7ItIlIvt1Y8UAh8" 1 "4fillerpost2" "The_prince_will_move_the_blanket_to_the_sofa" "Can_you_move_the_blanket_to_the_sofa?" "right" "left" "posttest_filler" "07/08/2019" "10:58" "right" 1 1243.135 1 "24/05/2019" "English" NA NA "male" "Post" "DO" "Pred" "Old"
"Co8n5Rdiwg7ItIlIvt1Y8UAh8" 2 "3fillerpost2" "Dora_the_explorer_will_put_the_food_in_the_basket" "Can_you_put_the_food_in_the_basket?" "left" "right" "posttest_filler" "07/08/2019" "10:58" "left" 1 3449.135 1 "24/05/2019" "English" NA NA "male" "Post" "DO" "Pred" "Old"
"Co8n5Rdiwg7ItIlIvt1Y8UAh8" 3 "6Pre2" "Emily_elephant_will_bring_the_mouse_a_rabbit" "Can_you_bring_the_mouse_the_rabbit?" "right" "left" "pretest" "07/08/2019" "10:58" "right" 1 1024.135 1 "24/05/2019" "English" NA NA "male" "Post" "DO" "Pred" "Old"
"Co8n5Rdiwg7ItIlIvt1Y8UAh8" 4 "3Pre2" "Peppa_Pig_will_send_the_hamster_a_toy" "Can_you_send_the_hamster_the_toy?" "left" "right" "pretest" "07/08/2019" "10:58" "left" 1 1774.135 1 "24/05/2019" "English" NA NA "male" "Post" "DO" "Pred" "Old"
"Co8n5Rdiwg7ItIlIvt1Y8UAh8" 5 "4FillerPre2" "The_king_will_poke_the_jelly_with_the_fork" "Can_you_poke_the_jelly_with_the_fork?" "right" "left" "pretest_filler" "07/08/2019" "10:58" "right" 1 3164.135 1 "24/05/2019" "English" NA NA "male" "Post" "DO" "Pred" "Old"
"Co8n5Rdiwg7ItIlIvt1Y8UAh8" 6 "1Pre2" "The_boy_will_bring_the_giraffe_a_cake" "Can_you_bring_the_giraffe_the_cake?" "right" "left" "pretest" "07/08/2019" "10:58" "right" 1 1472.135 1 "24/05/2019" "English" NA NA "male" "Post" "DO" "Pred" "Old"
"Co8n5Rdiwg7ItIlIvt1Y8UAh8" 7 "2Pre2" "The_girl_will_throw_the_elephant_a_clock" "Can_you_throw_the_elephant_the_clock?" "right" "left" "pretest" "07/08/2019" "10:58" "right" 1 2554.135 1 "24/05/2019" "English" NA NA "male" "Post" "DO" "Pred" "Old"
"Co8n5Rdiwg7ItIlIvt1Y8UAh8" 8 "1FillerPre2" "Peppa_pig_will_bounce_the_ball_with_the_bat" "Can_you_bounce_the_ball_with_the_bat?" "left" "right" "pretest_filler" "07/08/2019" "10:58" "right" 0 1063.135 1 "24/05/2019" "English" NA NA "male" "Post" "DO" "Pred" "Old"
"Co8n5Rdiwg7ItIlIvt1Y8UAh8" 9 "4Pre2" "The_king_will_throw_the_turtle_a_squirrel" "Can_you_throw_the_turtle_the_squirrel?" "left" "right" "pretest" "07/08/2019" "10:58" "left" 1 1007.135 1 "24/05/2019" "English" NA NA "male" "Post" "DO" "Pred" "Old"
"Co8n5Rdiwg7ItIlIvt1Y8UAh8" 10 "5Pre2" "The_queen_will_send_the_monkey_a_horse" "Can_you_send_the_monkey_the_horse?" "left" "right" "pretest" "07/08/2019" "10:58" "left" 1 1657.135 1 "24/05/2019" "English" NA NA "male" "Post" "DO" "Pred" "Old"
"DuCpKX1bRkSFGjBv9kD8PDads" 1 "4fillerpost2" "The_prince_will_move_the_blanket_to_the_sofa" "Can_you_move_the_blanket_to_the_sofa?" "right" "left" "posttest_filler" "6/17/2019" "10:08" "right" 1 1658.135 1 "13/06/2015" "English" NA NA "female" "Post" "PO" "NonPred" "Old"
"DuCpKX1bRkSFGjBv9kD8PDads" 2 "3fillerpost2" "Dora_the_explorer_will_put_the_food_in_the_basket" "Can_you_put_the_food_in_the_basket?" "left" "right" "posttest_filler" "6/17/2019" "10:08" "left" 1 2359.135 1 "13/06/15" "English" NA NA "female" "Post" "PO" "NonPred" "Old"
"DuCpKX1bRkSFGjBv9kD8PDads" 3 "3Pre2" "Peppa_Pig_will_send_the_hamster_a_toy" "Can_you_send_the_hamster_the_toy?" "right" "left" "pretest" "6/17/2019" "10:08" "left" 0 2316.135 1 "13/06/15" "English" NA NA "female" "Post" "PO" "NonPred" "Old"
"DuCpKX1bRkSFGjBv9kD8PDads" 4 "2Pre2" "The_girl_will_throw_the_elephant_a_clock" "Can_you_throw_the_elephant_the_clock?" "right" "left" "pretest" "6/17/2019" "10:08" "left" 0 2525.135 1 "13/06/15" "English" NA NA "female" "Post" "PO" "NonPred" "Old"
"DuCpKX1bRkSFGjBv9kD8PDads" 5 "5Pre2" "The_queen_will_send_the_monkey_a_horse" "Can_you_send_the_monkey_the_horse?" "right" "left" "pretest" "6/17/2019" "10:08" "left" 0 3275.135 1 "13/06/15" "English" NA NA "female" "Post" "PO" "NonPred" "Old"
"DuCpKX1bRkSFGjBv9kD8PDads" 6 "4Pre2" "The_king_will_throw_the_turtle_a_squirrel" "Can_you_throw_the_turtle_the_squirrel?" "right" "left" "pretest" "6/17/2019" "10:08" "left" 0 1279.135 1 "13/06/15" "English" NA NA "female" "Post" "PO" "NonPred" "Old"
"DuCpKX1bRkSFGjBv9kD8PDads" 7 "6Pre2" "Emily_elephant_will_bring_the_mouse_a_rabbit" "Can_you_bring_the_mouse_the_rabbit?" "left" "right" "pretest" "6/17/2019" "10:08" "right" 0 1616.135 1 "13/06/15" "English" NA NA "female" "Post" "PO" "NonPred" "Old"
"DuCpKX1bRkSFGjBv9kD8PDads" 8 "1FillerPre2" "Peppa_pig_will_bounce_the_ball_with_the_bat" "Can_you_bounce_the_ball_with_the_bat?" "left" "right" "pretest_filler" "6/17/2019" "10:08" "left" 1 1933.135 1 "13/06/15" "English" NA NA "female" "Post" "PO" "NonPred" "Old"
"DuCpKX1bRkSFGjBv9kD8PDads" 9 "4FillerPre2" "The_king_will_poke_the_jelly_with_the_fork" "Can_you_poke_the_jelly_with_the_fork?" "left" "right" "pretest_filler" "6/17/2019" "10:08" "left" 1 1869.135 1 "13/06/15" "English" NA NA "female" "Post" "PO" "NonPred" "Old"
"DuCpKX1bRkSFGjBv9kD8PDads" 10 "1Pre2" "The_boy_will_bring_the_giraffe_a_cake" "Can_you_bring_the_giraffe_the_cake?" "left" "right" "pretest" "6/17/2019" "10:08" "right" 0 2102.135 1 "13/06/15" "English" NA NA "female" "Post" "PO" "NonPred" "Old"
"E4eEjp8jdT9dLuiNCdUwCyceJ" 1 "4fillerpost2" "The_prince_will_move_the_blanket_to_the_sofa" "Can_you_move_the_blanket_to_the_sofa?" "right" "left" "posttest_filler" "7/17/2019" "13:48" "right" 1 3395.135 1 "06/01/2014" "English" NA NA "female" "Pre" "PO" "Pred" "Old"
"E4eEjp8jdT9dLuiNCdUwCyceJ" 2 "3fillerpost2" "Dora_the_explorer_will_put_the_food_in_the_basket" "Can_you_put_the_food_in_the_basket?" "left" "right" "posttest_filler" "7/17/2019" "13:48" "left" 1 2188.135 1 "06/01/2014" "English" NA NA "female" "Pre" "PO" "Pred" "Old"
"E4eEjp8jdT9dLuiNCdUwCyceJ" 3 "2post2" "The_girl_will_bring_the_horse_an_ice_cream" "Can_you_bring_the_horse_the_ice_cream?" "left" "right" "posttest" "7/17/2019" "13:48" "left" 1 1741.135 1 "06/01/2014" "English" NA NA "female" "Pre" "PO" "Pred" "Old"
"E4eEjp8jdT9dLuiNCdUwCyceJ" 4 "4Post2" "The_princess_will_send_the_lion_a_crocodile" "Can_you_send_the_lion_the_crocodile?" "right" "left" "posttest" "7/17/2019" "13:48" "right" 1 2186.135 1 "06/01/2014" "English" NA NA "female" "Pre" "PO" "Pred" "Old"
"E4eEjp8jdT9dLuiNCdUwCyceJ" 5 "1fillerpost2" "The_princess_will_tickle_the_teddy_bear_with_the_feather" "Can_you_tickle_the_teddy_bear_with_the_feather?" "left" "right" "posttest_filler" "7/17/2019" "13:48" "left" 1 3250.135 1 "06/01/2014" "English" NA NA "female" "Pre" "PO" "Pred" "Old"
"E4eEjp8jdT9dLuiNCdUwCyceJ" 6 "2fillerpost2" "Boots_will_clean_the_chair_with_the_sponge" "Can_you_clean_the_chair_with_the_sponge?" "right" "left" "posttest_filler" "7/17/2019" "13:48" "right" 1 2845.135 1 "06/01/2014" "English" NA NA "female" "Pre" "PO" "Pred" "Old"
"E4eEjp8jdT9dLuiNCdUwCyceJ" 7 "5post2" "The_prince_will_bring_the_turtle_a_cat" "Can_you_bring_the_turtle_the_cat?" "left" "right" "posttest" "7/17/2019" "13:48" "right" 0 1646.135 1 "06/01/2014" "English" NA NA "female" "Pre" "PO" "Pred" "Old"
"E4eEjp8jdT9dLuiNCdUwCyceJ" 8 "1Post2" "The_boy_will_send_the_tiger_a_present" "Can_you_send_the_tiger_the_present?" "left" "right" "posttest" "7/17/2019" "13:48" "left" 1 4560.135 1 "06/01/2014" "English" NA NA "female" "Pre" "PO" "Pred" "Old"
"E4eEjp8jdT9dLuiNCdUwCyceJ" 9 "3post2" "Boots_will_throw_the_giraffe_a_balloon" "Can_you_throw_the_giraffe_the_balloon?" "right" "left" "posttest" "7/17/2019" "13:48" "right" 1 1226.135 1 "06/01/2014" "English" NA NA "female" "Pre" "PO" "Pred" "Old"
"E4eEjp8jdT9dLuiNCdUwCyceJ" 10 "6post2" "Dora_the_explorer_will_throw_the_puppy_a_hamster" "Can_you_throw_puppy_the_hamster?" "right" "left" "posttest" "7/17/2019" "13:48" "right" 1 1961.135 1 "06/01/2014" "English" NA NA "female" "Pre" "PO" "Pred" "Old"
"eZ7ho2k5zltqLmcrTJh8e9MHq" 1 "4fillerpost2" "The_prince_will_move_the_blanket_to_the_sofa" "Can_you_move_the_blanket_to_the_sofa?" "right" "left" "posttest_filler" "7/1/2019" "11:41" "right" 1 5485.135 1 "21/6/15" "English" NA NA "male" "Post" "PO" "Pred" "Old"
"eZ7ho2k5zltqLmcrTJh8e9MHq" 2 "3fillerpost2" "Dora_the_explorer_will_put_the_food_in_the_basket" "Can_you_put_the_food_in_the_basket?" "left" "right" "posttest_filler" "7/1/2019" "11:41" "left" 1 2318.135 1 "21/6/15" "English" NA NA "male" "Post" "PO" "Pred" "Old"
"eZ7ho2k5zltqLmcrTJh8e9MHq" 3 "3Pre2" "Peppa_Pig_will_send_the_hamster_a_toy" "Can_you_send_the_hamster_the_toy?" "right" "left" "pretest" "7/1/2019" "11:41" "left" 0 2222.135 1 "21/6/15" "English" NA NA "male" "Post" "PO" "Pred" "Old"
"eZ7ho2k5zltqLmcrTJh8e9MHq" 4 "2Pre2" "The_girl_will_throw_the_elephant_a_clock" "Can_you_throw_the_elephant_the_clock?" "right" "left" "pretest" "7/1/2019" "11:41" "left" 0 3535.135 1 "21/6/15" "English" NA NA "male" "Post" "PO" "Pred" "Old"
"eZ7ho2k5zltqLmcrTJh8e9MHq" 5 "6Pre2" "Emily_elephant_will_bring_the_mouse_a_rabbit" "Can_you_bring_the_mouse_the_rabbit?" "left" "right" "pretest" "7/1/2019" "11:41" "right" 0 1727.135 1 "21/6/15" "English" NA NA "male" "Post" "PO" "Pred" "Old"
"eZ7ho2k5zltqLmcrTJh8e9MHq" 6 "1FillerPre2" "Peppa_pig_will_bounce_the_ball_with_the_bat" "Can_you_bounce_the_ball_with_the_bat?" "right" "left" "pretest_filler" "7/1/2019" "11:41" "right" 1 3986.135 1 "21/6/15" "English" NA NA "male" "Post" "PO" "Pred" "Old"
"eZ7ho2k5zltqLmcrTJh8e9MHq" 7 "4FillerPre2" "The_king_will_poke_the_jelly_with_the_fork" "Can_you_poke_the_jelly_with_the_fork?" "right" "left" "pretest_filler" "7/1/2019" "11:41" "right" 1 2624.135 1 "21/6/15" "English" NA NA "male" "Post" "PO" "Pred" "Old"
"eZ7ho2k5zltqLmcrTJh8e9MHq" 8 "5Pre2" "The_queen_will_send_the_monkey_a_horse" "Can_you_send_the_monkey_the_horse?" "left" "right" "pretest" "7/1/2019" "11:41" "right" 0 3397.135 1 "21/6/15" "English" NA NA "male" "Post" "PO" "Pred" "Old"
"eZ7ho2k5zltqLmcrTJh8e9MHq" 9 "4Pre2" "The_king_will_throw_the_turtle_a_squirrel" "Can_you_throw_the_turtle_the_squirrel?" "left" "right" "pretest" "7/1/2019" "11:41" "right" 0 5091.135 1 "21/6/15" "English" NA NA "male" "Post" "PO" "Pred" "Old"
"eZ7ho2k5zltqLmcrTJh8e9MHq" 10 "1Pre2" "The_boy_will_bring_the_giraffe_a_cake" "Can_you_bring_the_giraffe_the_cake?" "left" "right" "pretest" "7/1/2019" "11:41" "right" 0 2479.135 1 "21/6/15" "English" NA NA "male" "Post" "PO" "Pred" "Old"
"FdODjTefLNBHciMwmAY0fzy0s" 1 "4fillerpost2" "The_prince_will_move_the_blanket_to_the_sofa" "Can_you_move_the_blanket_to_the_sofa?" "right" "left" "posttest_filler" "7/18/2019" "13:12" "right" 1 4462.135 1 "10/05/15" "English" NA NA "female" "Post" "DO" "Pred" "Old"
"FdODjTefLNBHciMwmAY0fzy0s" 2 "3fillerpost2" "Dora_the_explorer_will_put_the_food_in_the_basket" "Can_you_put_the_food_in_the_basket?" "left" "right" "posttest_filler" "7/18/2019" "13:12" "left" 1 2692.135 1 "10/05/15" "English" NA NA "female" "Post" "DO" "Pred" "Old"
"FdODjTefLNBHciMwmAY0fzy0s" 3 "4FillerPre2" "The_king_will_poke_the_jelly_with_the_fork" "Can_you_poke_the_jelly_with_the_fork?" "left" "right" "pretest_filler" "7/18/2019" "13:12" "left" 1 5081.135 1 "10/05/15" "English" NA NA "female" "Post" "DO" "Pred" "Old"
"FdODjTefLNBHciMwmAY0fzy0s" 4 "5Pre2" "The_queen_will_send_the_monkey_a_horse" "Can_you_send_the_monkey_the_horse?" "left" "right" "pretest" "7/18/2019" "13:12" "left" 1 3263.135 1 "10/05/15" "English" NA NA "female" "Post" "DO" "Pred" "Old"
"FdODjTefLNBHciMwmAY0fzy0s" 5 "4Pre2" "The_king_will_throw_the_turtle_a_squirrel" "Can_you_throw_the_turtle_the_squirrel?" "left" "right" "pretest" "7/18/2019" "13:12" "left" 1 2576.135 1 "10/05/15" "English" NA NA "female" "Post" "DO" "Pred" "Old"
"FdODjTefLNBHciMwmAY0fzy0s" 6 "3Pre2" "Peppa_Pig_will_send_the_hamster_a_toy" "Can_you_send_the_hamster_the_toy?" "right" "left" "pretest" "7/18/2019" "13:12" "right" 1 4343.135 1 "10/05/15" "English" NA NA "female" "Post" "DO" "Pred" "Old"
"FdODjTefLNBHciMwmAY0fzy0s" 7 "1Pre2" "The_boy_will_bring_the_giraffe_a_cake" "Can_you_bring_the_giraffe_the_cake?" "right" "left" "pretest" "7/18/2019" "13:12" "right" 1 4741.135 1 "10/05/15" "English" NA NA "female" "Post" "DO" "Pred" "Old"
"FdODjTefLNBHciMwmAY0fzy0s" 8 "2Pre2" "The_girl_will_throw_the_elephant_a_clock" "Can_you_throw_the_elephant_the_clock?" "left" "right" "pretest" "7/18/2019" "13:12" "left" 1 2512.135 1 "10/05/15" "English" NA NA "female" "Post" "DO" "Pred" "Old"
"FdODjTefLNBHciMwmAY0fzy0s" 9 "6Pre2" "Emily_elephant_will_bring_the_mouse_a_rabbit" "Can_you_bring_the_mouse_the_rabbit?" "right" "left" "pretest" "7/18/2019" "13:12" "left" 0 6232.135 1 "10/05/15" "English" NA NA "female" "Post" "DO" "Pred" "Old"
"FdODjTefLNBHciMwmAY0fzy0s" 10 "1FillerPre2" "Peppa_pig_will_bounce_the_ball_with_the_bat" "Can_you_bounce_the_ball_with_the_bat?" "right" "left" "pretest_filler" "7/18/2019" "13:12" "left" 0 2960.135 1 "10/05/15" "English" NA NA "female" "Post" "DO" "Pred" "Old"
"FwqPAwsJHhtqk1alRgW3QGzE2" 1 "4fillerpost2" "The_prince_will_move_the_blanket_to_the_sofa" "Can_you_move_the_blanket_to_the_sofa?" "right" "left" "posttest_filler" "7/24/2019" "11:05" "right" 1 1847.135 1 "02/04/2015" "English" NA NA "male" "Post" "PO" "NonPred" "Old"
"FwqPAwsJHhtqk1alRgW3QGzE2" 2 "3fillerpost2" "Dora_the_explorer_will_put_the_food_in_the_basket" "Can_you_put_the_food_in_the_basket?" "left" "right" "posttest_filler" "7/24/2019" "11:05" "left" 1 2332.135 1 "02/04/2015" "English" NA NA "male" "Post" "PO" "NonPred" "Old"
"FwqPAwsJHhtqk1alRgW3QGzE2" 3 "1FillerPre2" "Peppa_pig_will_bounce_the_ball_with_the_bat" "Can_you_bounce_the_ball_with_the_bat?" "right" "left" "pretest_filler" "7/24/2019" "11:05" "right" 1 10935.135 1 "02/04/2015" "English" NA NA "male" "Post" "PO" "NonPred" "Old"
"FwqPAwsJHhtqk1alRgW3QGzE2" 4 "4Pre2" "The_king_will_throw_the_turtle_a_squirrel" "Can_you_throw_the_turtle_the_squirrel?" "left" "right" "pretest" "7/24/2019" "11:05" "left" 1 2375.135 1 "02/04/2015" "English" NA NA "male" "Post" "PO" "NonPred" "Old"
"FwqPAwsJHhtqk1alRgW3QGzE2" 5 "1Pre2" "The_boy_will_bring_the_giraffe_a_cake" "Can_you_bring_the_giraffe_the_cake?" "right" "left" "pretest" "7/24/2019" "11:05" "right" 1 3672.135 1 "02/04/2015" "English" NA NA "male" "Post" "PO" "NonPred" "Old"
"FwqPAwsJHhtqk1alRgW3QGzE2" 6 "2Pre2" "The_girl_will_throw_the_elephant_a_clock" "Can_you_throw_the_elephant_the_clock?" "right" "left" "pretest" "7/24/2019" "11:05" "right" 1 1085.135 1 "02/04/2015" "English" NA NA "male" "Post" "PO" "NonPred" "Old"
"FwqPAwsJHhtqk1alRgW3QGzE2" 7 "4FillerPre2" "The_king_will_poke_the_jelly_with_the_fork" "Can_you_poke_the_jelly_with_the_fork?" "left" "right" "pretest_filler" "7/24/2019" "11:05" "left" 1 4769.135 1 "02/04/2015" "English" NA NA "male" "Post" "PO" "NonPred" "Old"
"FwqPAwsJHhtqk1alRgW3QGzE2" 8 "3Pre2" "Peppa_Pig_will_send_the_hamster_a_toy" "Can_you_send_the_hamster_the_toy?" "left" "right" "pretest" "7/24/2019" "11:05" "left" 1 2294.135 1 "02/04/2015" "English" NA NA "male" "Post" "PO" "NonPred" "Old"
"FwqPAwsJHhtqk1alRgW3QGzE2" 9 "6Pre2" "Emily_elephant_will_bring_the_mouse_a_rabbit" "Can_you_bring_the_mouse_the_rabbit?" "left" "right" "pretest" "7/24/2019" "11:05" "left" 1 676.135 1 "02/04/2015" "English" NA NA "male" "Post" "PO" "NonPred" "Old"
"FwqPAwsJHhtqk1alRgW3QGzE2" 10 "5Pre2" "The_queen_will_send_the_monkey_a_horse" "Can_you_send_the_monkey_the_horse?" "right" "left" "pretest" "7/24/2019" "11:05" "right" 1 1647.135 1 "02/04/2015" "English" NA NA "male" "Post" "PO" "NonPred" "Old"
"GQLgHmxXdeTrRxApGRccaywgx" 1 "4fillerpost2" "The_prince_will_move_the_blanket_to_the_sofa" "Can_you_move_the_blanket_to_the_sofa?" "right" "left" "posttest_filler" "6/25/2019" "09:21" "left" 0 3989.135 1 "7/9/14" "English" NA NA "male" "Pre" "PO" "NonPred" "Old"
"GQLgHmxXdeTrRxApGRccaywgx" 2 "3fillerpost2" "Dora_the_explorer_will_put_the_food_in_the_basket" "Can_you_put_the_food_in_the_basket?" "left" "right" "posttest_filler" "6/25/2019" "09:21" "left" 1 2011.135 1 "7/9/14" "English" NA NA "male" "Pre" "PO" "NonPred" "Old"
"GQLgHmxXdeTrRxApGRccaywgx" 3 "6post2" "Dora_the_explorer_will_throw_the_puppy_a_hamster" "Can_you_throw_puppy_the_hamster?" "left" "right" "posttest" "6/25/2019" "09:21" "right" 0 4018.135 1 "7/9/14" "English" NA NA "male" "Pre" "PO" "NonPred" "Old"
"GQLgHmxXdeTrRxApGRccaywgx" 4 "5post2" "The_prince_will_bring_the_turtle_a_cat" "Can_you_bring_the_turtle_the_cat?" "right" "left" "posttest" "6/25/2019" "09:21" "left" 0 1634.135 1 "7/9/14" "English" NA NA "male" "Pre" "PO" "NonPred" "Old"
"GQLgHmxXdeTrRxApGRccaywgx" 5 "4Post2" "The_princess_will_send_the_lion_a_crocodile" "Can_you_send_the_lion_the_crocodile?" "left" "right" "posttest" "6/25/2019" "09:21" "right" 0 4601.135 1 "7/9/14" "English" NA NA "male" "Pre" "PO" "NonPred" "Old"
"GQLgHmxXdeTrRxApGRccaywgx" 6 "1Post2" "The_boy_will_send_the_tiger_a_present" "Can_you_send_the_tiger_the_present?" "right" "left" "posttest" "6/25/2019" "09:21" "left" 0 1368.135 1 "7/9/14" "English" NA NA "male" "Pre" "PO" "NonPred" "Old"
"GQLgHmxXdeTrRxApGRccaywgx" 7 "2post2" "The_girl_will_bring_the_horse_an_ice_cream" "Can_you_bring_the_horse_the_ice_cream?" "right" "left" "posttest" "6/25/2019" "09:21" "left" 0 815.135 1 "7/9/14" "English" NA NA "male" "Pre" "PO" "NonPred" "Old"
"GQLgHmxXdeTrRxApGRccaywgx" 8 "3post2" "Boots_will_throw_the_giraffe_a_balloon" "Can_you_throw_the_giraffe_the_balloon?" "right" "left" "posttest" "6/25/2019" "09:21" "left" 0 1223.135 1 "7/9/14" "English" NA NA "male" "Pre" "PO" "NonPred" "Old"
"GQLgHmxXdeTrRxApGRccaywgx" 9 "1fillerpost2" "The_princess_will_tickle_the_teddy_bear_with_the_feather" "Can_you_tickle_the_teddy_bear_with_the_feather?" "left" "right" "posttest_filler" "6/25/2019" "09:21" "left" 1 2033.135 1 "7/9/14" "English" NA NA "male" "Pre" "PO" "NonPred" "Old"
"GQLgHmxXdeTrRxApGRccaywgx" 10 "2fillerpost2" "Boots_will_clean_the_chair_with_the_sponge" "Can_you_clean_the_chair_with_the_sponge?" "left" "right" "posttest_filler" "6/25/2019" "09:21" "left" 1 4001.135 1 "7/9/14" "English" NA NA "male" "Pre" "PO" "NonPred" "Old"
"H9yGpPYpoulJelMr19gxSWT9I" 1 "4fillerpost2" "The_prince_will_move_the_blanket_to_the_sofa" "Can_you_move_the_blanket_to_the_sofa?" "right" "left" "posttest_filler" "6/25/2019" "11:54" "right" 1 2130.135 1 "20/2/15" "English" NA NA "female" "Post" "PO" "Pred" "Old"
"H9yGpPYpoulJelMr19gxSWT9I" 2 "3fillerpost2" "Dora_the_explorer_will_put_the_food_in_the_basket" "Can_you_put_the_food_in_the_basket?" "left" "right" "posttest_filler" "6/25/2019" "11:54" "left" 1 4108.135 1 "20/2/15" "English" NA NA "female" "Post" "PO" "Pred" "Old"
"H9yGpPYpoulJelMr19gxSWT9I" 3 "2Pre2" "The_girl_will_throw_the_elephant_a_clock" "Can_you_throw_the_elephant_the_clock?" "right" "left" "pretest" "6/25/2019" "11:54" "left" 0 3578.135 1 "20/2/15" "English" NA NA "female" "Post" "PO" "Pred" "Old"
"H9yGpPYpoulJelMr19gxSWT9I" 4 "4FillerPre2" "The_king_will_poke_the_jelly_with_the_fork" "Can_you_poke_the_jelly_with_the_fork?" "left" "right" "pretest_filler" "6/25/2019" "11:54" "left" 1 1918.135 1 "20/2/15" "English" NA NA "female" "Post" "PO" "Pred" "Old"
"H9yGpPYpoulJelMr19gxSWT9I" 5 "1Pre2" "The_boy_will_bring_the_giraffe_a_cake" "Can_you_bring_the_giraffe_the_cake?" "left" "right" "pretest" "6/25/2019" "11:54" "right" 0 10763.135 1 "20/2/15" "English" NA NA "female" "Post" "PO" "Pred" "Old"
"H9yGpPYpoulJelMr19gxSWT9I" 6 "6Pre2" "Emily_elephant_will_bring_the_mouse_a_rabbit" "Can_you_bring_the_mouse_the_rabbit?" "right" "left" "pretest" "6/25/2019" "11:54" "left" 0 1892.135 1 "20/2/15" "English" NA NA "female" "Post" "PO" "Pred" "Old"
"H9yGpPYpoulJelMr19gxSWT9I" 7 "1FillerPre2" "Peppa_pig_will_bounce_the_ball_with_the_bat" "Can_you_bounce_the_ball_with_the_bat?" "left" "right" "pretest_filler" "6/25/2019" "11:54" "right" 0 2390.135 1 "20/2/15" "English" NA NA "female" "Post" "PO" "Pred" "Old"
"H9yGpPYpoulJelMr19gxSWT9I" 8 "3Pre2" "Peppa_Pig_will_send_the_hamster_a_toy" "Can_you_send_the_hamster_the_toy?" "right" "left" "pretest" "6/25/2019" "11:54" "right" 1 1862.135 1 "20/2/15" "English" NA NA "female" "Post" "PO" "Pred" "Old"
"H9yGpPYpoulJelMr19gxSWT9I" 9 "4Pre2" "The_king_will_throw_the_turtle_a_squirrel" "Can_you_throw_the_turtle_the_squirrel?" "right" "left" "pretest" "6/25/2019" "11:54" "left" 0 2681.135 1 "20/2/15" "English" NA NA "female" "Post" "PO" "Pred" "Old"
"H9yGpPYpoulJelMr19gxSWT9I" 10 "5Pre2" "The_queen_will_send_the_monkey_a_horse" "Can_you_send_the_monkey_the_horse?" "left" "right" "pretest" "6/25/2019" "11:54" "right" 0 1813.135 1 "20/2/15" "English" NA NA "female" "Post" "PO" "Pred" "Old"
"i9PqXdc6jyqSFOa122A9aGWmQ" 1 "4fillerpost2" "The_prince_will_move_the_blanket_to_the_sofa" "Can_you_move_the_blanket_to_the_sofa?" "right" "left" "posttest_filler" "10/28/2019" "10:49" "right" 1 1824.135 1 "2015-07-26" "English" NA NA "female" "Post" "DO" "Pred" "Old"
"i9PqXdc6jyqSFOa122A9aGWmQ" 2 "3fillerpost2" "Dora_the_explorer_will_put_the_food_in_the_basket" "Can_you_put_the_food_in_the_basket?" "left" "right" "posttest_filler" "10/28/2019" "10:49" "left" 1 1080.135 1 "2015-07-26" "English" NA NA "female" "Post" "DO" "Pred" "Old"
"i9PqXdc6jyqSFOa122A9aGWmQ" 3 "2Pre2" "The_girl_will_throw_the_elephant_a_clock" "Can_you_throw_the_elephant_the_clock?" "right" "left" "pretest" "10/28/2019" "10:49" "right" 1 3661.135 1 "2015-07-26" "English" NA NA "female" "Post" "DO" "Pred" "Old"
"i9PqXdc6jyqSFOa122A9aGWmQ" 4 "5Pre2" "The_queen_will_send_the_monkey_a_horse" "Can_you_send_the_monkey_the_horse?" "right" "left" "pretest" "10/28/2019" "10:49" "right" 1 1904.135 1 "2015-07-26" "English" NA NA "female" "Post" "DO" "Pred" "Old"
"i9PqXdc6jyqSFOa122A9aGWmQ" 5 "6Pre2" "Emily_elephant_will_bring_the_mouse_a_rabbit" "Can_you_bring_the_mouse_the_rabbit?" "left" "right" "pretest" "10/28/2019" "10:49" "left" 1 1511.135 1 "2015-07-26" "English" NA NA "female" "Post" "DO" "Pred" "Old"
"i9PqXdc6jyqSFOa122A9aGWmQ" 6 "3Pre2" "Peppa_Pig_will_send_the_hamster_a_toy" "Can_you_send_the_hamster_the_toy?" "right" "left" "pretest" "10/28/2019" "10:49" "right" 1 2226.135 1 "2015-07-26" "English" NA NA "female" "Post" "DO" "Pred" "Old"
"i9PqXdc6jyqSFOa122A9aGWmQ" 7 "1Pre2" "The_boy_will_bring_the_giraffe_a_cake" "Can_you_bring_the_giraffe_the_cake?" "right" "left" "pretest" "10/28/2019" "10:49" "right" 1 1414.135 1 "2015-07-26" "English" NA NA "female" "Post" "DO" "Pred" "Old"
"i9PqXdc6jyqSFOa122A9aGWmQ" 8 "4FillerPre2" "The_king_will_poke_the_jelly_with_the_fork" "Can_you_poke_the_jelly_with_the_fork?" "left" "right" "pretest_filler" "10/28/2019" "10:49" "left" 1 1731.135 1 "2015-07-26" "English" NA NA "female" "Post" "DO" "Pred" "Old"
"i9PqXdc6jyqSFOa122A9aGWmQ" 9 "1FillerPre2" "Peppa_pig_will_bounce_the_ball_with_the_bat" "Can_you_bounce_the_ball_with_the_bat?" "left" "right" "pretest_filler" "10/28/2019" "10:49" "left" 1 2411.135 1 "2015-07-26" "English" NA NA "female" "Post" "DO" "Pred" "Old"
"i9PqXdc6jyqSFOa122A9aGWmQ" 10 "4Pre2" "The_king_will_throw_the_turtle_a_squirrel" "Can_you_throw_the_turtle_the_squirrel?" "left" "right" "pretest" "10/28/2019" "10:49" "left" 1 1241.135 1 "2015-07-26" "English" NA NA "female" "Post" "DO" "Pred" "Old"
"IJRTd7WULy3UcrqSAj58fK5Hk" 1 "4fillerpost2" "The_prince_will_move_the_blanket_to_the_sofa" "Can_you_move_the_blanket_to_the_sofa?" "right" "left" "posttest_filler" "7/18/2019" "14:23" "right" 1 4966.135 1 "02/10/14" "English" NA NA "female" "Post" "PO" "NonPred" "Old"
"IJRTd7WULy3UcrqSAj58fK5Hk" 2 "3fillerpost2" "Dora_the_explorer_will_put_the_food_in_the_basket" "Can_you_put_the_food_in_the_basket?" "left" "right" "posttest_filler" "7/18/2019" "14:23" "left" 1 3875.135 1 "02/10/14" "English" NA NA "female" "Post" "PO" "NonPred" "Old"
"IJRTd7WULy3UcrqSAj58fK5Hk" 3 "4FillerPre2" "The_king_will_poke_the_jelly_with_the_fork" "Can_you_poke_the_jelly_with_the_fork?" "right" "left" "pretest_filler" "7/18/2019" "14:23" "right" 1 18878.135 1 "02/10/14" "English" NA NA "female" "Post" "PO" "NonPred" "Old"
"IJRTd7WULy3UcrqSAj58fK5Hk" 4 "1FillerPre2" "Peppa_pig_will_bounce_the_ball_with_the_bat" "Can_you_bounce_the_ball_with_the_bat?" "right" "left" "pretest_filler" "7/18/2019" "14:23" "right" 1 12240.135 1 "02/10/14" "English" NA NA "female" "Post" "PO" "NonPred" "Old"
"IJRTd7WULy3UcrqSAj58fK5Hk" 5 "2Pre2" "The_girl_will_throw_the_elephant_a_clock" "Can_you_throw_the_elephant_the_clock?" "left" "right" "pretest" "7/18/2019" "14:23" "left" 1 1767.135 1 "02/10/14" "English" NA NA "female" "Post" "PO" "NonPred" "Old"
"IJRTd7WULy3UcrqSAj58fK5Hk" 6 "1Pre2" "The_boy_will_bring_the_giraffe_a_cake" "Can_you_bring_the_giraffe_the_cake?" "right" "left" "pretest" "7/18/2019" "14:23" "right" 1 8296.135 1 "02/10/14" "English" NA NA "female" "Post" "PO" "NonPred" "Old"
"IJRTd7WULy3UcrqSAj58fK5Hk" 7 "4Pre2" "The_king_will_throw_the_turtle_a_squirrel" "Can_you_throw_the_turtle_the_squirrel?" "right" "left" "pretest" "7/18/2019" "14:23" "right" 1 7955.135 1 "02/10/14" "English" NA NA "female" "Post" "PO" "NonPred" "Old"
"IJRTd7WULy3UcrqSAj58fK5Hk" 8 "3Pre2" "Peppa_Pig_will_send_the_hamster_a_toy" "Can_you_send_the_hamster_the_toy?" "left" "right" "pretest" "7/18/2019" "14:23" "right" 0 1502.135 1 "02/10/14" "English" NA NA "female" "Post" "PO" "NonPred" "Old"
"IJRTd7WULy3UcrqSAj58fK5Hk" 9 "6Pre2" "Emily_elephant_will_bring_the_mouse_a_rabbit" "Can_you_bring_the_mouse_the_rabbit?" "left" "right" "pretest" "7/18/2019" "14:23" "right" 0 4718.135 1 "02/10/14" "English" NA NA "female" "Post" "PO" "NonPred" "Old"
"IJRTd7WULy3UcrqSAj58fK5Hk" 10 "5Pre2" "The_queen_will_send_the_monkey_a_horse" "Can_you_send_the_monkey_the_horse?" "left" "right" "pretest" "7/18/2019" "14:23" "right" 0 4631.135 1 "02/10/14" "English" NA NA "female" "Post" "PO" "NonPred" "Old"
"iLumJFeKJT74QSXxlJLJx63CE" 1 "4fillerpost2" "The_prince_will_move_the_blanket_to_the_sofa" "Can_you_move_the_blanket_to_the_sofa?" "right" "left" "posttest_filler" "7/18/2019" "11:09" "right" 1 3102.135 1 "25/07/15" "English" NA NA "female" "Post" "PO" "Pred" "Old"
"iLumJFeKJT74QSXxlJLJx63CE" 2 "3fillerpost2" "Dora_the_explorer_will_put_the_food_in_the_basket" "Can_you_put_the_food_in_the_basket?" "left" "right" "posttest_filler" "7/18/2019" "11:09" "left" 1 1063.135 1 "25/07/15" "English" NA NA "female" "Post" "PO" "Pred" "Old"
"iLumJFeKJT74QSXxlJLJx63CE" 3 "2Pre2" "The_girl_will_throw_the_elephant_a_clock" "Can_you_throw_the_elephant_the_clock?" "right" "left" "pretest" "7/18/2019" "11:09" "left" 0 3410.135 1 "25/07/15" "English" NA NA "female" "Post" "PO" "Pred" "Old"
"iLumJFeKJT74QSXxlJLJx63CE" 4 "5Pre2" "The_queen_will_send_the_monkey_a_horse" "Can_you_send_the_monkey_the_horse?" "left" "right" "pretest" "7/18/2019" "11:09" "right" 0 2145.135 1 "25/07/15" "English" NA NA "female" "Post" "PO" "Pred" "Old"
"iLumJFeKJT74QSXxlJLJx63CE" 5 "1Pre2" "The_boy_will_bring_the_giraffe_a_cake" "Can_you_bring_the_giraffe_the_cake?" "right" "left" "pretest" "7/18/2019" "11:09" "left" 0 1325.135 1 "25/07/15" "English" NA NA "female" "Post" "PO" "Pred" "Old"
"iLumJFeKJT74QSXxlJLJx63CE" 6 "3Pre2" "Peppa_Pig_will_send_the_hamster_a_toy" "Can_you_send_the_hamster_the_toy?" "left" "right" "pretest" "7/18/2019" "11:09" "left" 1 493.135 2 "25/07/15" "English" NA NA "female" "Post" "PO" "Pred" "Old"
"iLumJFeKJT74QSXxlJLJx63CE" 7 "4Pre2" "The_king_will_throw_the_turtle_a_squirrel" "Can_you_throw_the_turtle_the_squirrel?" "right" "left" "pretest" "7/18/2019" "11:09" "right" 1 427.135 1 "25/07/15" "English" NA NA "female" "Post" "PO" "Pred" "Old"
"iLumJFeKJT74QSXxlJLJx63CE" 8 "1FillerPre2" "Peppa_pig_will_bounce_the_ball_with_the_bat" "Can_you_bounce_the_ball_with_the_bat?" "right" "left" "pretest_filler" "7/18/2019" "11:09" "left" 0 558.135 1 "25/07/15" "English" NA NA "female" "Post" "PO" "Pred" "Old"
"iLumJFeKJT74QSXxlJLJx63CE" 9 "4FillerPre2" "The_king_will_poke_the_jelly_with_the_fork" "Can_you_poke_the_jelly_with_the_fork?" "left" "right" "pretest_filler" "7/18/2019" "11:09" "right" 0 912.135 1 "25/07/15" "English" NA NA "female" "Post" "PO" "Pred" "Old"
"iLumJFeKJT74QSXxlJLJx63CE" 10 "6Pre2" "Emily_elephant_will_bring_the_mouse_a_rabbit" "Can_you_bring_the_mouse_the_rabbit?" "left" "right" "pretest" "7/18/2019" "11:09" "left" 1 2309.135 1 "25/07/15" "English" NA NA "female" "Post" "PO" "Pred" "Old"
"isclaECAm1tGFGQGrJ6XxNJpp" 1 "4fillerpost2" "The_prince_will_move_the_blanket_to_the_sofa" "Can_you_move_the_blanket_to_the_sofa?" "right" "left" "posttest_filler" "6/25/2019" "11:32" "right" 1 5624.135 1 "03/06/2015" "English" NA NA "female" "Pre" "PO" "Pred" "Old"
"isclaECAm1tGFGQGrJ6XxNJpp" 2 "3fillerpost2" "Dora_the_explorer_will_put_the_food_in_the_basket" "Can_you_put_the_food_in_the_basket?" "left" "right" "posttest_filler" "6/25/2019" "11:32" "left" 1 3784.135 1 "03/06/2015" "English" NA NA "female" "Pre" "PO" "Pred" "Old"
"isclaECAm1tGFGQGrJ6XxNJpp" 3 "2fillerpost2" "Boots_will_clean_the_chair_with_the_sponge" "Can_you_clean_the_chair_with_the_sponge?" "right" "left" "posttest_filler" "6/25/2019" "11:32" "right" 1 2102.135 1 "03/06/2015" "English" NA NA "female" "Pre" "PO" "Pred" "Old"
"isclaECAm1tGFGQGrJ6XxNJpp" 4 "4Post2" "The_princess_will_send_the_lion_a_crocodile" "Can_you_send_the_lion_the_crocodile?" "right" "left" "posttest" "6/25/2019" "11:32" "left" 0 2916.135 1 "03/06/2015" "English" NA NA "female" "Pre" "PO" "Pred" "Old"
"isclaECAm1tGFGQGrJ6XxNJpp" 5 "1Post2" "The_boy_will_send_the_tiger_a_present" "Can_you_send_the_tiger_the_present?" "left" "right" "posttest" "6/25/2019" "11:32" "left" 1 10853.135 1 "03/06/2015" "English" NA NA "female" "Pre" "PO" "Pred" "Old"
"isclaECAm1tGFGQGrJ6XxNJpp" 6 "1fillerpost2" "The_princess_will_tickle_the_teddy_bear_with_the_feather" "Can_you_tickle_the_teddy_bear_with_the_feather?" "left" "right" "posttest_filler" "6/25/2019" "11:32" "left" 1 2106.135 1 "03/06/2015" "English" NA NA "female" "Pre" "PO" "Pred" "Old"
"isclaECAm1tGFGQGrJ6XxNJpp" 7 "3post2" "Boots_will_throw_the_giraffe_a_balloon" "Can_you_throw_the_giraffe_the_balloon?" "left" "right" "posttest" "6/25/2019" "11:32" "left" 1 6510.135 1 "03/06/2015" "English" NA NA "female" "Pre" "PO" "Pred" "Old"
"isclaECAm1tGFGQGrJ6XxNJpp" 8 "6post2" "Dora_the_explorer_will_throw_the_puppy_a_hamster" "Can_you_throw_puppy_the_hamster?" "right" "left" "posttest" "6/25/2019" "11:32" "right" 1 3747.135 1 "03/06/2015" "English" NA NA "female" "Pre" "PO" "Pred" "Old"
"isclaECAm1tGFGQGrJ6XxNJpp" 9 "5post2" "The_prince_will_bring_the_turtle_a_cat" "Can_you_bring_the_turtle_the_cat?" "left" "right" "posttest" "6/25/2019" "11:32" "right" 0 11114.135 1 "03/06/2015" "English" NA NA "female" "Pre" "PO" "Pred" "Old"
"isclaECAm1tGFGQGrJ6XxNJpp" 10 "2post2" "The_girl_will_bring_the_horse_an_ice_cream" "Can_you_bring_the_horse_the_ice_cream?" "right" "left" "posttest" "6/25/2019" "11:32" "right" 1 6516.135 1 "03/06/2015" "English" NA NA "female" "Pre" "PO" "Pred" "Old"
"IubJKuZAYluSUxIEddzxWBXf7" 1 "4fillerpost2" "The_prince_will_move_the_blanket_to_the_sofa" "Can_you_move_the_blanket_to_the_sofa?" "right" "left" "posttest_filler" "7/2/2019" "11:32" "right" 1 2314.135 1 "06/11/14" "English" NA NA "female" "Pre" "PO" "Pred" "Old"
"IubJKuZAYluSUxIEddzxWBXf7" 2 "3fillerpost2" "Dora_the_explorer_will_put_the_food_in_the_basket" "Can_you_put_the_food_in_the_basket?" "left" "right" "posttest_filler" "7/2/2019" "11:32" "left" 1 2404.135 1 "06/11/14" "English" NA NA "female" "Pre" "PO" "Pred" "Old"
"IubJKuZAYluSUxIEddzxWBXf7" 3 "3post2" "Boots_will_throw_the_giraffe_a_balloon" "Can_you_throw_the_giraffe_the_balloon?" "left" "right" "posttest" "7/2/2019" "11:32" "right" 0 1961.135 1 "06/11/14" "English" NA NA "female" "Pre" "PO" "Pred" "Old"
"IubJKuZAYluSUxIEddzxWBXf7" 4 "6post2" "Dora_the_explorer_will_throw_the_puppy_a_hamster" "Can_you_throw_puppy_the_hamster?" "right" "left" "posttest" "7/2/2019" "11:32" "left" 0 5275.135 1 "06/11/14" "English" NA NA "female" "Pre" "PO" "Pred" "Old"
"IubJKuZAYluSUxIEddzxWBXf7" 5 "2post2" "The_girl_will_bring_the_horse_an_ice_cream" "Can_you_bring_the_horse_the_ice_cream?" "right" "left" "posttest" "7/2/2019" "11:32" "left" 0 2547.135 1 "06/11/14" "English" NA NA "female" "Pre" "PO" "Pred" "Old"
"IubJKuZAYluSUxIEddzxWBXf7" 6 "5post2" "The_prince_will_bring_the_turtle_a_cat" "Can_you_bring_the_turtle_the_cat?" "right" "left" "posttest" "7/2/2019" "11:32" "left" 0 2506.135 1 "06/11/14" "English" NA NA "female" "Pre" "PO" "Pred" "Old"
"IubJKuZAYluSUxIEddzxWBXf7" 7 "4Post2" "The_princess_will_send_the_lion_a_crocodile" "Can_you_send_the_lion_the_crocodile?" "left" "right" "posttest" "7/2/2019" "11:32" "right" 0 1336.135 1 "06/11/14" "English" NA NA "female" "Pre" "PO" "Pred" "Old"
"IubJKuZAYluSUxIEddzxWBXf7" 8 "1Post2" "The_boy_will_send_the_tiger_a_present" "Can_you_send_the_tiger_the_present?" "left" "right" "posttest" "7/2/2019" "11:32" "right" 0 1843.135 1 "06/11/14" "English" NA NA "female" "Pre" "PO" "Pred" "Old"
"IubJKuZAYluSUxIEddzxWBXf7" 9 "2fillerpost2" "Boots_will_clean_the_chair_with_the_sponge" "Can_you_clean_the_chair_with_the_sponge?" "left" "right" "posttest_filler" "7/2/2019" "11:32" "left" 1 2570.135 1 "06/11/14" "English" NA NA "female" "Pre" "PO" "Pred" "Old"
"IubJKuZAYluSUxIEddzxWBXf7" 10 "1fillerpost2" "The_princess_will_tickle_the_teddy_bear_with_the_feather" "Can_you_tickle_the_teddy_bear_with_the_feather?" "right" "left" "posttest_filler" "7/2/2019" "11:32" "right" 1 1814.135 1 "06/11/14" "English" NA NA "female" "Pre" "PO" "Pred" "Old"
"kS7hiMfISjB4Le7mAvmM2ifmU" 1 "4fillerpost2" "The_prince_will_move_the_blanket_to_the_sofa" "Can_you_move_the_blanket_to_the_sofa?" "right" "left" "posttest_filler" "7/18/2019" "10:50" "right" 1 2093.135 1 "20/04/15" "English/ German" NA NA "female" "Pre" "PO" "NonPred" "Old"
"kS7hiMfISjB4Le7mAvmM2ifmU" 2 "3fillerpost2" "Dora_the_explorer_will_put_the_food_in_the_basket" "Can_you_put_the_food_in_the_basket?" "left" "right" "posttest_filler" "7/18/2019" "10:50" "left" 1 2085.135 1 "20/04/15" "English/ German" NA NA "female" "Pre" "PO" "NonPred" "Old"
"kS7hiMfISjB4Le7mAvmM2ifmU" 3 "6post2" "Dora_the_explorer_will_throw_the_puppy_a_hamster" "Can_you_throw_puppy_the_hamster?" "right" "left" "posttest" "7/18/2019" "10:50" "left" 0 788.135 1 "20/04/15" "English/ German" NA NA "female" "Pre" "PO" "NonPred" "Old"
"kS7hiMfISjB4Le7mAvmM2ifmU" 4 "5post2" "The_prince_will_bring_the_turtle_a_cat" "Can_you_bring_the_turtle_the_cat?" "left" "right" "posttest" "7/18/2019" "10:50" "right" 0 1621.135 1 "20/04/15" "English/ German" NA NA "female" "Pre" "PO" "NonPred" "Old"
"kS7hiMfISjB4Le7mAvmM2ifmU" 5 "3post2" "Boots_will_throw_the_giraffe_a_balloon" "Can_you_throw_the_giraffe_the_balloon?" "right" "left" "posttest" "7/18/2019" "10:50" "left" 0 3157.135 1 "20/04/15" "English/ German" NA NA "female" "Pre" "PO" "NonPred" "Old"
"kS7hiMfISjB4Le7mAvmM2ifmU" 6 "4Post2" "The_princess_will_send_the_lion_a_crocodile" "Can_you_send_the_lion_the_crocodile?" "right" "left" "posttest" "7/18/2019" "10:50" "right" 1 4056.135 1 "20/04/15" "English/ German" NA NA "female" "Pre" "PO" "NonPred" "Old"
"kS7hiMfISjB4Le7mAvmM2ifmU" 7 "2fillerpost2" "Boots_will_clean_the_chair_with_the_sponge" "Can_you_clean_the_chair_with_the_sponge?" "left" "right" "posttest_filler" "7/18/2019" "10:50" "left" 1 2209.135 1 "20/04/15" "English/ German" NA NA "female" "Pre" "PO" "NonPred" "Old"
"kS7hiMfISjB4Le7mAvmM2ifmU" 8 "2post2" "The_girl_will_bring_the_horse_an_ice_cream" "Can_you_bring_the_horse_the_ice_cream?" "right" "left" "posttest" "7/18/2019" "10:50" "right" 1 4166.135 1 "20/04/15" "English/ German" NA NA "female" "Pre" "PO" "NonPred" "Old"
"kS7hiMfISjB4Le7mAvmM2ifmU" 9 "1Post2" "The_boy_will_send_the_tiger_a_present" "Can_you_send_the_tiger_the_present?" "left" "right" "posttest" "7/18/2019" "10:50" "left" 1 1958.135 1 "20/04/15" "English/ German" NA NA "female" "Pre" "PO" "NonPred" "Old"
"kS7hiMfISjB4Le7mAvmM2ifmU" 10 "1fillerpost2" "The_princess_will_tickle_the_teddy_bear_with_the_feather" "Can_you_tickle_the_teddy_bear_with_the_feather?" "left" "right" "posttest_filler" "7/18/2019" "10:50" "left" 1 2739.135 1 "20/04/15" "English/ German" NA NA "female" "Pre" "PO" "NonPred" "Old"
"kYyYeL2XWRmISezkKv8fgKLPi" 1 "4fillerpost2" "The_prince_will_move_the_blanket_to_the_sofa" "Can_you_move_the_blanket_to_the_sofa?" "right" "left" "posttest_filler" "7/8/2019" "09:39" "right" 1 1323.135 1 "07/11/2014" "English" NA NA "female" "Pre" "PO" "NonPred" "Old"
"kYyYeL2XWRmISezkKv8fgKLPi" 2 "3fillerpost2" "Dora_the_explorer_will_put_the_food_in_the_basket" "Can_you_put_the_food_in_the_basket?" "left" "right" "posttest_filler" "7/8/2019" "09:39" "left" 1 1820.135 1 "07/11/2014" "English" NA NA "female" "Pre" "PO" "NonPred" "Old"
"kYyYeL2XWRmISezkKv8fgKLPi" 3 "4Post2" "The_princess_will_send_the_lion_a_crocodile" "Can_you_send_the_lion_the_crocodile?" "right" "left" "posttest" "7/8/2019" "09:39" "left" 0 1748.135 1 "07/11/2014" "English" NA NA "female" "Pre" "PO" "NonPred" "Old"
"kYyYeL2XWRmISezkKv8fgKLPi" 4 "1fillerpost2" "The_princess_will_tickle_the_teddy_bear_with_the_feather" "Can_you_tickle_the_teddy_bear_with_the_feather?" "left" "right" "posttest_filler" "7/8/2019" "09:39" "left" 1 3714.135 1 "07/11/2014" "English" NA NA "female" "Pre" "PO" "NonPred" "Old"
"kYyYeL2XWRmISezkKv8fgKLPi" 5 "2fillerpost2" "Boots_will_clean_the_chair_with_the_sponge" "Can_you_clean_the_chair_with_the_sponge?" "right" "left" "posttest_filler" "7/8/2019" "09:39" "right" 1 2820.135 1 "07/11/2014" "English" NA NA "female" "Pre" "PO" "NonPred" "Old"
"kYyYeL2XWRmISezkKv8fgKLPi" 6 "1Post2" "The_boy_will_send_the_tiger_a_present" "Can_you_send_the_tiger_the_present?" "right" "left" "posttest" "7/8/2019" "09:39" "left" 0 1962.135 1 "07/11/2014" "English" NA NA "female" "Pre" "PO" "NonPred" "Old"
"kYyYeL2XWRmISezkKv8fgKLPi" 7 "2post2" "The_girl_will_bring_the_horse_an_ice_cream" "Can_you_bring_the_horse_the_ice_cream?" "left" "right" "posttest" "7/8/2019" "09:39" "right" 0 2356.135 1 "07/11/2014" "English" NA NA "female" "Pre" "PO" "NonPred" "Old"
"kYyYeL2XWRmISezkKv8fgKLPi" 8 "5post2" "The_prince_will_bring_the_turtle_a_cat" "Can_you_bring_the_turtle_the_cat?" "right" "left" "posttest" "7/8/2019" "09:39" "left" 0 1524.135 1 "07/11/2014" "English" NA NA "female" "Pre" "PO" "NonPred" "Old"
"kYyYeL2XWRmISezkKv8fgKLPi" 9 "6post2" "Dora_the_explorer_will_throw_the_puppy_a_hamster" "Can_you_throw_puppy_the_hamster?" "left" "right" "posttest" "7/8/2019" "09:39" "right" 0 2163.135 1 "07/11/2014" "English" NA NA "female" "Pre" "PO" "NonPred" "Old"
"kYyYeL2XWRmISezkKv8fgKLPi" 10 "3post2" "Boots_will_throw_the_giraffe_a_balloon" "Can_you_throw_the_giraffe_the_balloon?" "left" "right" "posttest" "7/8/2019" "09:39" "right" 0 1583.135 1 "07/11/2014" "English" NA NA "female" "Pre" "PO" "NonPred" "Old"
"ls4zgdQsgZ4Ay2nkrzQkj5Wo0" 1 "4fillerpost2" "The_prince_will_move_the_blanket_to_the_sofa" "Can_you_move_the_blanket_to_the_sofa?" "right" "left" "posttest_filler" "06/10/2019" "11:21" "right" 1 2632.135 1 "04/01/2015" "Flemish" "English" NA "female" "Post" "PO" "Pred" "Old"
"ls4zgdQsgZ4Ay2nkrzQkj5Wo0" 2 "3fillerpost2" "Dora_the_explorer_will_put_the_food_in_the_basket" "Can_you_put_the_food_in_the_basket?" "left" "right" "posttest_filler" "06/10/2019" "11:21" "left" 1 2809.135 1 "04/01/2015" "Flemish" "English" NA "female" "Post" "PO" "Pred" "Old"
"ls4zgdQsgZ4Ay2nkrzQkj5Wo0" 3 "3Pre2" "Peppa_Pig_will_send_the_hamster_a_toy" "Can_you_send_the_hamster_the_toy?" "left" "right" "pretest" "06/10/2019" "11:21" "left" 1 2788.135 1 "04/01/2015" "Flemish" "English" NA "female" "Post" "PO" "Pred" "Old"
"ls4zgdQsgZ4Ay2nkrzQkj5Wo0" 4 "2Pre2" "The_girl_will_throw_the_elephant_a_clock" "Can_you_throw_the_elephant_the_clock?" "right" "left" "pretest" "06/10/2019" "11:21" "right" 1 2775.135 1 "04/01/2015" "Flemish" "English" NA "female" "Post" "PO" "Pred" "Old"
"ls4zgdQsgZ4Ay2nkrzQkj5Wo0" 5 "6Pre2" "Emily_elephant_will_bring_the_mouse_a_rabbit" "Can_you_bring_the_mouse_the_rabbit?" "right" "left" "pretest" "06/10/2019" "11:21" "left" 0 1605.135 1 "04/01/2015" "Flemish" "English" NA "female" "Post" "PO" "Pred" "Old"
"ls4zgdQsgZ4Ay2nkrzQkj5Wo0" 6 "1Pre2" "The_boy_will_bring_the_giraffe_a_cake" "Can_you_bring_the_giraffe_the_cake?" "right" "left" "pretest" "06/10/2019" "11:21" "right" 1 1556.135 1 "04/01/2015" "Flemish" "English" NA "female" "Post" "PO" "Pred" "Old"
"ls4zgdQsgZ4Ay2nkrzQkj5Wo0" 7 "4Pre2" "The_king_will_throw_the_turtle_a_squirrel" "Can_you_throw_the_turtle_the_squirrel?" "left" "right" "pretest" "06/10/2019" "11:21" "right" 0 2393.135 1 "04/01/2015" "Flemish" "English" NA "female" "Post" "PO" "Pred" "Old"
"ls4zgdQsgZ4Ay2nkrzQkj5Wo0" 8 "4FillerPre2" "The_king_will_poke_the_jelly_with_the_fork" "Can_you_poke_the_jelly_with_the_fork?" "right" "left" "pretest_filler" "06/10/2019" "11:21" "right" 1 2813.135 1 "04/01/2015" "Flemish" "English" NA "female" "Post" "PO" "Pred" "Old"
"ls4zgdQsgZ4Ay2nkrzQkj5Wo0" 9 "1FillerPre2" "Peppa_pig_will_bounce_the_ball_with_the_bat" "Can_you_bounce_the_ball_with_the_bat?" "left" "right" "pretest_filler" "06/10/2019" "11:21" "right" 0 2094.135 1 "04/01/2015" "Flemish" "English" NA "female" "Post" "PO" "Pred" "Old"
"ls4zgdQsgZ4Ay2nkrzQkj5Wo0" 10 "5Pre2" "The_queen_will_send_the_monkey_a_horse" "Can_you_send_the_monkey_the_horse?" "left" "right" "pretest" "06/10/2019" "11:21" "right" 0 2494.135 1 "04/01/2015" "Flemish" "English" NA "female" "Post" "PO" "Pred" "Old"
"mADcRFAqiA2VCWmdKrjXLNlRi" 1 "4fillerpost2" "The_prince_will_move_the_blanket_to_the_sofa" "Can_you_move_the_blanket_to_the_sofa?" "right" "left" "posttest_filler" "7/17/2019" "09:55" "right" 1 1755.135 1 "24/04/15" "English" NA NA "male" "Pre" "PO" "Pred" "Old"
"mADcRFAqiA2VCWmdKrjXLNlRi" 2 "3fillerpost2" "Dora_the_explorer_will_put_the_food_in_the_basket" "Can_you_put_the_food_in_the_basket?" "left" "right" "posttest_filler" "7/17/2019" "09:55" "left" 1 1112.135 1 "24/04/15" "English" NA NA "male" "Pre" "PO" "Pred" "Old"
"mADcRFAqiA2VCWmdKrjXLNlRi" 3 "1fillerpost2" "The_princess_will_tickle_the_teddy_bear_with_the_feather" "Can_you_tickle_the_teddy_bear_with_the_feather?" "right" "left" "posttest_filler" "7/17/2019" "09:55" "left" 0 1364.135 1 "24/04/15" "English" NA NA "male" "Pre" "PO" "Pred" "Old"
"mADcRFAqiA2VCWmdKrjXLNlRi" 4 "2fillerpost2" "Boots_will_clean_the_chair_with_the_sponge" "Can_you_clean_the_chair_with_the_sponge?" "right" "left" "posttest_filler" "7/17/2019" "09:55" "right" 1 4297.135 1 "24/04/15" "English" NA NA "male" "Pre" "PO" "Pred" "Old"
"mADcRFAqiA2VCWmdKrjXLNlRi" 5 "4Post2" "The_princess_will_send_the_lion_a_crocodile" "Can_you_send_the_lion_the_crocodile?" "left" "right" "posttest" "7/17/2019" "09:55" "left" 1 1158.135 1 "24/04/15" "English" NA NA "male" "Pre" "PO" "Pred" "Old"
"mADcRFAqiA2VCWmdKrjXLNlRi" 6 "6post2" "Dora_the_explorer_will_throw_the_puppy_a_hamster" "Can_you_throw_puppy_the_hamster?" "left" "right" "posttest" "7/17/2019" "09:55" "right" 0 1642.135 1 "24/04/15" "English" NA NA "male" "Pre" "PO" "Pred" "Old"
"mADcRFAqiA2VCWmdKrjXLNlRi" 7 "5post2" "The_prince_will_bring_the_turtle_a_cat" "Can_you_bring_the_turtle_the_cat?" "right" "left" "posttest" "7/17/2019" "09:55" "right" 1 2963.135 1 "24/04/15" "English" NA NA "male" "Pre" "PO" "Pred" "Old"
"mADcRFAqiA2VCWmdKrjXLNlRi" 8 "1Post2" "The_boy_will_send_the_tiger_a_present" "Can_you_send_the_tiger_the_present?" "left" "right" "posttest" "7/17/2019" "09:55" "left" 1 2076.135 1 "24/04/15" "English" NA NA "male" "Pre" "PO" "Pred" "Old"
"mADcRFAqiA2VCWmdKrjXLNlRi" 9 "2post2" "The_girl_will_bring_the_horse_an_ice_cream" "Can_you_bring_the_horse_the_ice_cream?" "left" "right" "posttest" "7/17/2019" "09:55" "left" 1 2331.135 1 "24/04/15" "English" NA NA "male" "Pre" "PO" "Pred" "Old"
"mADcRFAqiA2VCWmdKrjXLNlRi" 10 "3post2" "Boots_will_throw_the_giraffe_a_balloon" "Can_you_throw_the_giraffe_the_balloon?" "right" "left" "posttest" "7/17/2019" "09:55" "right" 1 1517.135 1 "24/04/15" "English" NA NA "male" "Pre" "PO" "Pred" "Old"
"mAHHSzVZTjvhQSUAEWxAxdAgm" 1 "4fillerpost2" "The_prince_will_move_the_blanket_to_the_sofa" "Can_you_move_the_blanket_to_the_sofa?" "right" "left" "posttest_filler" "7/17/2019" "09:55" "right" 1 1767.135 1 "09/07/15" "English" NA NA "female" "Post" "PO" "Pred" "Old"
"mAHHSzVZTjvhQSUAEWxAxdAgm" 2 "3fillerpost2" "Dora_the_explorer_will_put_the_food_in_the_basket" "Can_you_put_the_food_in_the_basket?" "left" "right" "posttest_filler" "7/17/2019" "09:55" "left" 1 7454.135 1 "09/07/15" "English" NA NA "female" "Post" "PO" "Pred" "Old"
"mAHHSzVZTjvhQSUAEWxAxdAgm" 3 "4Pre2" "The_king_will_throw_the_turtle_a_squirrel" "Can_you_throw_the_turtle_the_squirrel?" "right" "left" "pretest" "7/17/2019" "09:55" "left" 0 3725.135 1 "09/07/15" "English" NA NA "female" "Post" "PO" "Pred" "Old"
"mAHHSzVZTjvhQSUAEWxAxdAgm" 4 "1Pre2" "The_boy_will_bring_the_giraffe_a_cake" "Can_you_bring_the_giraffe_the_cake?" "right" "left" "pretest" "7/17/2019" "09:55" "right" 1 2055.135 1 "09/07/15" "English" NA NA "female" "Post" "PO" "Pred" "Old"
"mAHHSzVZTjvhQSUAEWxAxdAgm" 5 "4FillerPre2" "The_king_will_poke_the_jelly_with_the_fork" "Can_you_poke_the_jelly_with_the_fork?" "left" "right" "pretest_filler" "7/17/2019" "09:55" "left" 1 5009.135 1 "09/07/15" "English" NA NA "female" "Post" "PO" "Pred" "Old"
"mAHHSzVZTjvhQSUAEWxAxdAgm" 6 "1FillerPre2" "Peppa_pig_will_bounce_the_ball_with_the_bat" "Can_you_bounce_the_ball_with_the_bat?" "left" "right" "pretest_filler" "7/17/2019" "09:55" "left" 1 1585.135 1 "09/07/15" "English" NA NA "female" "Post" "PO" "Pred" "Old"
"mAHHSzVZTjvhQSUAEWxAxdAgm" 7 "5Pre2" "The_queen_will_send_the_monkey_a_horse" "Can_you_send_the_monkey_the_horse?" "left" "right" "pretest" "7/17/2019" "09:55" "left" 1 1927.135 1 "09/07/15" "English" NA NA "female" "Post" "PO" "Pred" "Old"
"mAHHSzVZTjvhQSUAEWxAxdAgm" 8 "2Pre2" "The_girl_will_throw_the_elephant_a_clock" "Can_you_throw_the_elephant_the_clock?" "right" "left" "pretest" "7/17/2019" "09:55" "right" 1 1723.135 1 "09/07/15" "English" NA NA "female" "Post" "PO" "Pred" "Old"
"mAHHSzVZTjvhQSUAEWxAxdAgm" 9 "3Pre2" "Peppa_Pig_will_send_the_hamster_a_toy" "Can_you_send_the_hamster_the_toy?" "left" "right" "pretest" "7/17/2019" "09:55" "left" 1 2470.135 1 "09/07/15" "English" NA NA "female" "Post" "PO" "Pred" "Old"
"mAHHSzVZTjvhQSUAEWxAxdAgm" 10 "6Pre2" "Emily_elephant_will_bring_the_mouse_a_rabbit" "Can_you_bring_the_mouse_the_rabbit?" "right" "left" "pretest" "7/17/2019" "09:55" "left" 0 5074.135 1 "09/07/15" "English" NA NA "female" "Post" "PO" "Pred" "Old"
"MIc4v8dmnHxthlAYf9jNB5p65" 1 "4fillerpost2" "The_prince_will_move_the_blanket_to_the_sofa" "Can_you_move_the_blanket_to_the_sofa?" "right" "left" "posttest_filler" "6/28/2019" "10:49" "right" 1 1326.135 1 "4/2/15" "English" NA NA "male" "Post" "DO" "Pred" "Old"
"MIc4v8dmnHxthlAYf9jNB5p65" 2 "3fillerpost2" "Dora_the_explorer_will_put_the_food_in_the_basket" "Can_you_put_the_food_in_the_basket?" "left" "right" "posttest_filler" "6/28/2019" "10:49" "left" 1 1337.135 1 "4/2/15" "English" NA NA "male" "Post" "DO" "Pred" "Old"
"MIc4v8dmnHxthlAYf9jNB5p65" 3 "2Pre2" "The_girl_will_throw_the_elephant_a_clock" "Can_you_throw_the_elephant_the_clock?" "right" "left" "pretest" "6/28/2019" "10:49" "right" 1 3371.135 1 "4/2/15" "English" NA NA "male" "Post" "DO" "Pred" "Old"
"MIc4v8dmnHxthlAYf9jNB5p65" 4 "6Pre2" "Emily_elephant_will_bring_the_mouse_a_rabbit" "Can_you_bring_the_mouse_the_rabbit?" "left" "right" "pretest" "6/28/2019" "10:49" "left" 1 942.135 1 "4/2/15" "English" NA NA "male" "Post" "DO" "Pred" "Old"
"MIc4v8dmnHxthlAYf9jNB5p65" 5 "3Pre2" "Peppa_Pig_will_send_the_hamster_a_toy" "Can_you_send_the_hamster_the_toy?" "right" "left" "pretest" "6/28/2019" "10:49" "left" 0 4659.135 1 "4/2/15" "English" NA NA "male" "Post" "DO" "Pred" "Old"
"MIc4v8dmnHxthlAYf9jNB5p65" 6 "5Pre2" "The_queen_will_send_the_monkey_a_horse" "Can_you_send_the_monkey_the_horse?" "left" "right" "pretest" "6/28/2019" "10:49" "left" 1 2659.135 1 "4/2/15" "English" NA NA "male" "Post" "DO" "Pred" "Old"
"MIc4v8dmnHxthlAYf9jNB5p65" 7 "4FillerPre2" "The_king_will_poke_the_jelly_with_the_fork" "Can_you_poke_the_jelly_with_the_fork?" "right" "left" "pretest_filler" "6/28/2019" "10:49" "right" 1 6959.135 1 "4/2/15" "English" NA NA "male" "Post" "DO" "Pred" "Old"
"MIc4v8dmnHxthlAYf9jNB5p65" 8 "4Pre2" "The_king_will_throw_the_turtle_a_squirrel" "Can_you_throw_the_turtle_the_squirrel?" "right" "left" "pretest" "6/28/2019" "10:49" "right" 1 4083.135 1 "4/2/15" "English" NA NA "male" "Post" "DO" "Pred" "Old"
"MIc4v8dmnHxthlAYf9jNB5p65" 9 "1Pre2" "The_boy_will_bring_the_giraffe_a_cake" "Can_you_bring_the_giraffe_the_cake?" "left" "right" "pretest" "6/28/2019" "10:49" "left" 1 2392.135 2 "4/2/15" "English" NA NA "male" "Post" "DO" "Pred" "Old"
"MIc4v8dmnHxthlAYf9jNB5p65" 10 "1FillerPre2" "Peppa_pig_will_bounce_the_ball_with_the_bat" "Can_you_bounce_the_ball_with_the_bat?" "left" "right" "pretest_filler" "6/28/2019" "10:49" "right" 0 7343.135 1 "4/2/15" "English" NA NA "male" "Post" "DO" "Pred" "Old"
"n0QM2830f1sZdddGcFJM7fi0a" 1 "4fillerpost2" "The_prince_will_move_the_blanket_to_the_sofa" "Can_you_move_the_blanket_to_the_sofa?" "right" "left" "posttest_filler" "7/18/2019" "11:09" "right" 1 1123.135 1 "07/11/14" "English" NA NA "female" "Post" "PO" "Pred" "Old"
"n0QM2830f1sZdddGcFJM7fi0a" 2 "3fillerpost2" "Dora_the_explorer_will_put_the_food_in_the_basket" "Can_you_put_the_food_in_the_basket?" "left" "right" "posttest_filler" "7/18/2019" "11:09" "left" 1 1287.135 1 "07/11/14" "English" NA NA "female" "Post" "PO" "Pred" "Old"
"n0QM2830f1sZdddGcFJM7fi0a" 3 "2Pre2" "The_girl_will_throw_the_elephant_a_clock" "Can_you_throw_the_elephant_the_clock?" "right" "left" "pretest" "7/18/2019" "11:09" "right" 1 2796.135 1 "07/11/14" "English" NA NA "female" "Post" "PO" "Pred" "Old"
"n0QM2830f1sZdddGcFJM7fi0a" 4 "6Pre2" "Emily_elephant_will_bring_the_mouse_a_rabbit" "Can_you_bring_the_mouse_the_rabbit?" "left" "right" "pretest" "7/18/2019" "11:09" "left" 1 3840.135 2 "07/11/14" "English" NA NA "female" "Post" "PO" "Pred" "Old"
"n0QM2830f1sZdddGcFJM7fi0a" 5 "1FillerPre2" "Peppa_pig_will_bounce_the_ball_with_the_bat" "Can_you_bounce_the_ball_with_the_bat?" "left" "right" "pretest_filler" "7/18/2019" "11:09" "right" 0 1369.135 1 "07/11/14" "English" NA NA "female" "Post" "PO" "Pred" "Old"
"n0QM2830f1sZdddGcFJM7fi0a" 6 "1Pre2" "The_boy_will_bring_the_giraffe_a_cake" "Can_you_bring_the_giraffe_the_cake?" "right" "left" "pretest" "7/18/2019" "11:09" "right" 1 1578.135 2 "07/11/14" "English" NA NA "female" "Post" "PO" "Pred" "Old"
"n0QM2830f1sZdddGcFJM7fi0a" 7 "4FillerPre2" "The_king_will_poke_the_jelly_with_the_fork" "Can_you_poke_the_jelly_with_the_fork?" "left" "right" "pretest_filler" "7/18/2019" "11:09" "left" 1 1395.135 1 "07/11/14" "English" NA NA "female" "Post" "PO" "Pred" "Old"
"n0QM2830f1sZdddGcFJM7fi0a" 8 "4Pre2" "The_king_will_throw_the_turtle_a_squirrel" "Can_you_throw_the_turtle_the_squirrel?" "right" "left" "pretest" "7/18/2019" "11:09" "right" 1 1122.135 1 "07/11/14" "English" NA NA "female" "Post" "PO" "Pred" "Old"
"n0QM2830f1sZdddGcFJM7fi0a" 9 "5Pre2" "The_queen_will_send_the_monkey_a_horse" "Can_you_send_the_monkey_the_horse?" "right" "left" "pretest" "7/18/2019" "11:09" "left" 0 2829.135 1 "07/11/14" "English" NA NA "female" "Post" "PO" "Pred" "Old"
"n0QM2830f1sZdddGcFJM7fi0a" 10 "3Pre2" "Peppa_Pig_will_send_the_hamster_a_toy" "Can_you_send_the_hamster_the_toy?" "left" "right" "pretest" "7/18/2019" "11:09" "right" 0 2143.135 1 "07/11/14" "English" NA NA "female" "Post" "PO" "Pred" "Old"
"n1rv5Hr5IS81uEHeBAJK9gCzL" 1 "4fillerpost2" "The_prince_will_move_the_blanket_to_the_sofa" "Can_you_move_the_blanket_to_the_sofa?" "right" "left" "posttest_filler" "05/03/2019" "16:21" "right" 1 1863.135 1 "03/09/2014" "English" NA NA "male" "Pre" "PO" "NonPred" "Old"
"n1rv5Hr5IS81uEHeBAJK9gCzL" 2 "3fillerpost2" "Dora_the_explorer_will_put_the_food_in_the_basket" "Can_you_put_the_food_in_the_basket?" "left" "right" "posttest_filler" "05/03/2019" "16:21" "left" 1 5210.135 1 "03/09/2014" "English" NA NA "male" "Pre" "PO" "NonPred" "Old"
"n1rv5Hr5IS81uEHeBAJK9gCzL" 3 "1fillerpost2" "The_princess_will_tickle_the_teddy_bear_with_the_feather" "Can_you_tickle_the_teddy_bear_with_the_feather?" "right" "left" "posttest_filler" "05/03/2019" "16:21" "right" 1 3660.135 1 "03/09/2014" "English" NA NA "male" "Pre" "PO" "NonPred" "Old"
"n1rv5Hr5IS81uEHeBAJK9gCzL" 4 "1Post2" "The_boy_will_send_the_tiger_a_present" "Can_you_send_the_tiger_the_present?" "left" "right" "posttest" "05/03/2019" "16:21" "right" 0 3332.135 1 "03/09/2014" "English" NA NA "male" "Pre" "PO" "NonPred" "Old"
"n1rv5Hr5IS81uEHeBAJK9gCzL" 5 "4Post2" "The_princess_will_send_the_lion_a_crocodile" "Can_you_send_the_lion_the_crocodile?" "right" "left" "posttest" "05/03/2019" "16:21" "left" 0 2177.135 1 "03/09/2014" "English" NA NA "male" "Pre" "PO" "NonPred" "Old"
"n1rv5Hr5IS81uEHeBAJK9gCzL" 6 "5post2" "The_prince_will_bring_the_turtle_a_cat" "Can_you_bring_the_turtle_the_cat?" "left" "right" "posttest" "05/03/2019" "16:21" "right" 0 3036.135 1 "03/09/2014" "English" NA NA "male" "Pre" "PO" "NonPred" "Old"
"n1rv5Hr5IS81uEHeBAJK9gCzL" 7 "2post2" "The_girl_will_bring_the_horse_an_ice_cream" "Can_you_bring_the_horse_the_ice_cream?" "right" "left" "posttest" "05/03/2019" "16:21" "right" 1 3208.135 1 "03/09/2014" "English" NA NA "male" "Pre" "PO" "NonPred" "Old"
"n1rv5Hr5IS81uEHeBAJK9gCzL" 8 "2fillerpost2" "Boots_will_clean_the_chair_with_the_sponge" "Can_you_clean_the_chair_with_the_sponge?" "left" "right" "posttest_filler" "05/03/2019" "16:21" "left" 1 4326.135 1 "03/09/2014" "English" NA NA "male" "Pre" "PO" "NonPred" "Old"
"n1rv5Hr5IS81uEHeBAJK9gCzL" 9 "6post2" "Dora_the_explorer_will_throw_the_puppy_a_hamster" "Can_you_throw_puppy_the_hamster?" "left" "right" "posttest" "05/03/2019" "16:21" "right" 0 2076.135 1 "03/09/2014" "English" NA NA "male" "Pre" "PO" "NonPred" "Old"
"n1rv5Hr5IS81uEHeBAJK9gCzL" 10 "3post2" "Boots_will_throw_the_giraffe_a_balloon" "Can_you_throw_the_giraffe_the_balloon?" "right" "left" "posttest" "05/03/2019" "16:21" "left" 0 7558.135 1 "03/09/2014" "English" NA NA "male" "Pre" "PO" "NonPred" "Old"
"na6JemgEBhLGSAFLy5wX7Gw3O" 1 "4fillerpost2" "The_prince_will_move_the_blanket_to_the_sofa" "Can_you_move_the_blanket_to_the_sofa?" "right" "left" "posttest_filler" "7/2/2019" "09:08" "right" 1 3609.135 1 "02/03/15" "English" NA NA "male" "Pre" "PO" "Pred" "Old"
"na6JemgEBhLGSAFLy5wX7Gw3O" 2 "3fillerpost2" "Dora_the_explorer_will_put_the_food_in_the_basket" "Can_you_put_the_food_in_the_basket?" "left" "right" "posttest_filler" "7/2/2019" "09:08" "left" 1 1179.135 1 "02/03/15" "English" NA NA "male" "Pre" "PO" "Pred" "Old"
"na6JemgEBhLGSAFLy5wX7Gw3O" 3 "5post2" "The_prince_will_bring_the_turtle_a_cat" "Can_you_bring_the_turtle_the_cat?" "left" "right" "posttest" "7/2/2019" "09:08" "right" 0 1481.135 1 "02/03/15" "English" NA NA "male" "Pre" "PO" "Pred" "Old"
"na6JemgEBhLGSAFLy5wX7Gw3O" 4 "6post2" "Dora_the_explorer_will_throw_the_puppy_a_hamster" "Can_you_throw_puppy_the_hamster?" "left" "right" "posttest" "7/2/2019" "09:08" "right" 0 2978.135 1 "02/03/15" "English" NA NA "male" "Pre" "PO" "Pred" "Old"
"na6JemgEBhLGSAFLy5wX7Gw3O" 5 "1fillerpost2" "The_princess_will_tickle_the_teddy_bear_with_the_feather" "Can_you_tickle_the_teddy_bear_with_the_feather?" "left" "right" "posttest_filler" "7/2/2019" "09:08" "right" 0 1472.135 1 "02/03/15" "English" NA NA "male" "Pre" "PO" "Pred" "Old"
"na6JemgEBhLGSAFLy5wX7Gw3O" 6 "3post2" "Boots_will_throw_the_giraffe_a_balloon" "Can_you_throw_the_giraffe_the_balloon?" "right" "left" "posttest" "7/2/2019" "09:08" "left" 0 4147.135 1 "02/03/15" "English" NA NA "male" "Pre" "PO" "Pred" "Old"
"na6JemgEBhLGSAFLy5wX7Gw3O" 7 "4Post2" "The_princess_will_send_the_lion_a_crocodile" "Can_you_send_the_lion_the_crocodile?" "right" "left" "posttest" "7/2/2019" "09:08" "right" 1 7642.135 1 "02/03/15" "English" NA NA "male" "Pre" "PO" "Pred" "Old"
"na6JemgEBhLGSAFLy5wX7Gw3O" 8 "1Post2" "The_boy_will_send_the_tiger_a_present" "Can_you_send_the_tiger_the_present?" "left" "right" "posttest" "7/2/2019" "09:08" "left" 1 2364.135 1 "02/03/15" "English" NA NA "male" "Pre" "PO" "Pred" "Old"
"na6JemgEBhLGSAFLy5wX7Gw3O" 9 "2post2" "The_girl_will_bring_the_horse_an_ice_cream" "Can_you_bring_the_horse_the_ice_cream?" "right" "left" "posttest" "7/2/2019" "09:08" "right" 1 2237.135 1 "02/03/15" "English" NA NA "male" "Pre" "PO" "Pred" "Old"
"na6JemgEBhLGSAFLy5wX7Gw3O" 10 "2fillerpost2" "Boots_will_clean_the_chair_with_the_sponge" "Can_you_clean_the_chair_with_the_sponge?" "right" "left" "posttest_filler" "7/2/2019" "09:08" "right" 1 2599.135 1 "02/03/15" "English" NA NA "male" "Pre" "PO" "Pred" "Old"
"nb3vS6MAGwB57xfdb8LxM8R21" 1 "4fillerpost2" "The_prince_will_move_the_blanket_to_the_sofa" "Can_you_move_the_blanket_to_the_sofa?" "right" "left" "posttest_filler" "7/18/2019" "14:45" "right" 1 12624.135 1 "15/04/15" "English" NA NA "male" "Post" "DO" "Pred" "Old"
"nb3vS6MAGwB57xfdb8LxM8R21" 2 "3fillerpost2" "Dora_the_explorer_will_put_the_food_in_the_basket" "Can_you_put_the_food_in_the_basket?" "left" "right" "posttest_filler" "7/18/2019" "14:45" "left" 1 7330.135 1 "15/04/15" "English" NA NA "male" "Post" "DO" "Pred" "Old"
"nb3vS6MAGwB57xfdb8LxM8R21" 3 "4FillerPre2" "The_king_will_poke_the_jelly_with_the_fork" "Can_you_poke_the_jelly_with_the_fork?" "left" "right" "pretest_filler" "7/18/2019" "14:45" "left" 1 916.135 1 "15/04/15" "English" NA NA "male" "Post" "DO" "Pred" "Old"
"nb3vS6MAGwB57xfdb8LxM8R21" 4 "6Pre2" "Emily_elephant_will_bring_the_mouse_a_rabbit" "Can_you_bring_the_mouse_the_rabbit?" "right" "left" "pretest" "7/18/2019" "14:45" "left" 0 20676.135 1 "15/04/15" "English" NA NA "male" "Post" "DO" "Pred" "Old"
"nb3vS6MAGwB57xfdb8LxM8R21" 5 "3Pre2" "Peppa_Pig_will_send_the_hamster_a_toy" "Can_you_send_the_hamster_the_toy?" "left" "right" "pretest" "7/18/2019" "14:45" "left" 1 3750.135 1 "15/04/15" "English" NA NA "male" "Post" "DO" "Pred" "Old"
"nb3vS6MAGwB57xfdb8LxM8R21" 6 "2Pre2" "The_girl_will_throw_the_elephant_a_clock" "Can_you_throw_the_elephant_the_clock?" "right" "left" "pretest" "7/18/2019" "14:45" "right" 1 5830.135 1 "15/04/15" "English" NA NA "male" "Post" "DO" "Pred" "Old"
"nb3vS6MAGwB57xfdb8LxM8R21" 7 "5Pre2" "The_queen_will_send_the_monkey_a_horse" "Can_you_send_the_monkey_the_horse?" "right" "left" "pretest" "7/18/2019" "14:45" "right" 1 4097.135 1 "15/04/15" "English" NA NA "male" "Post" "DO" "Pred" "Old"
"nb3vS6MAGwB57xfdb8LxM8R21" 8 "1Pre2" "The_boy_will_bring_the_giraffe_a_cake" "Can_you_bring_the_giraffe_the_cake?" "left" "right" "pretest" "7/18/2019" "14:45" "left" 1 798.135 1 "15/04/15" "English" NA NA "male" "Post" "DO" "Pred" "Old"
"nb3vS6MAGwB57xfdb8LxM8R21" 9 "1FillerPre2" "Peppa_pig_will_bounce_the_ball_with_the_bat" "Can_you_bounce_the_ball_with_the_bat?" "left" "right" "pretest_filler" "7/18/2019" "14:45" "left" 1 5893.135 1 "15/04/15" "English" NA NA "male" "Post" "DO" "Pred" "Old"
"nb3vS6MAGwB57xfdb8LxM8R21" 10 "4Pre2" "The_king_will_throw_the_turtle_a_squirrel" "Can_you_throw_the_turtle_the_squirrel?" "right" "left" "pretest" "7/18/2019" "14:45" "right" 1 1684.135 1 "15/04/15" "English" NA NA "male" "Post" "DO" "Pred" "Old"
"nd74ahWCLiQTJaYcHMUyLlKle" 1 "4fillerpost2" "The_prince_will_move_the_blanket_to_the_sofa" "Can_you_move_the_blanket_to_the_sofa?" "right" "left" "posttest_filler" "4/18/2019" "13:26" "right" 1 3555.135 1 "29/09/2014" "English" NA NA "female" "Pre" "PO" "Pred" "Old"
"nd74ahWCLiQTJaYcHMUyLlKle" 2 "3fillerpost2" "Dora_the_explorer_will_put_the_food_in_the_basket" "Can_you_put_the_food_in_the_basket?" "left" "right" "posttest_filler" "4/18/2019" "13:26" "right" 0 3179.135 1 "29/09/2014" "English" NA NA "female" "Pre" "PO" "Pred" "Old"
"nd74ahWCLiQTJaYcHMUyLlKle" 3 "4Post2" "The_princess_will_send_the_lion_a_crocodile" "Can_you_send_the_lion_the_crocodile?" "right" "left" "posttest" "4/18/2019" "13:26" "right" 1 2887.135 1 "29/09/2014" "English" NA NA "female" "Pre" "PO" "Pred" "Old"
"nd74ahWCLiQTJaYcHMUyLlKle" 4 "6post2" "Dora_the_explorer_will_throw_the_puppy_a_hamster" "Can_you_throw_puppy_the_hamster?" "right" "left" "posttest" "4/18/2019" "13:26" "left" 0 3062.135 1 "29/09/2014" "English" NA NA "female" "Pre" "PO" "Pred" "Old"
"nd74ahWCLiQTJaYcHMUyLlKle" 5 "3post2" "Boots_will_throw_the_giraffe_a_balloon" "Can_you_throw_the_giraffe_the_balloon?" "left" "right" "posttest" "4/18/2019" "13:26" "left" 1 2290.135 1 "29/09/2014" "English" NA NA "female" "Pre" "PO" "Pred" "Old"
"nd74ahWCLiQTJaYcHMUyLlKle" 6 "1fillerpost2" "The_princess_will_tickle_the_teddy_bear_with_the_feather" "Can_you_tickle_the_teddy_bear_with_the_feather?" "left" "right" "posttest_filler" "4/18/2019" "13:26" "left" 1 5817.135 1 "29/09/2014" "English" NA NA "female" "Pre" "PO" "Pred" "Old"
"nd74ahWCLiQTJaYcHMUyLlKle" 7 "5post2" "The_prince_will_bring_the_turtle_a_cat" "Can_you_bring_the_turtle_the_cat?" "right" "left" "posttest" "4/18/2019" "13:26" "left" 0 2630.135 1 "29/09/2014" "English" NA NA "female" "Pre" "PO" "Pred" "Old"
"nd74ahWCLiQTJaYcHMUyLlKle" 8 "2fillerpost2" "Boots_will_clean_the_chair_with_the_sponge" "Can_you_clean_the_chair_with_the_sponge?" "left" "right" "posttest_filler" "4/18/2019" "13:26" "left" 1 7293.135 1 "29/09/2014" "English" NA NA "female" "Pre" "PO" "Pred" "Old"
"nd74ahWCLiQTJaYcHMUyLlKle" 9 "2post2" "The_girl_will_bring_the_horse_an_ice_cream" "Can_you_bring_the_horse_the_ice_cream?" "right" "left" "posttest" "4/18/2019" "13:26" "left" 0 3499.135 1 "29/09/2014" "English" NA NA "female" "Pre" "PO" "Pred" "Old"
"nd74ahWCLiQTJaYcHMUyLlKle" 10 "1Post2" "The_boy_will_send_the_tiger_a_present" "Can_you_send_the_tiger_the_present?" "left" "right" "posttest" "4/18/2019" "13:26" "left" 1 2274.135 1 "29/09/2014" "English" NA NA "female" "Pre" "PO" "Pred" "Old"
"nmTDvGRZx8JwbJ8saKJPKN36o" 1 "4fillerpost2" "The_prince_will_move_the_blanket_to_the_sofa" "Can_you_move_the_blanket_to_the_sofa?" "right" "left" "posttest_filler" "7/17/2019" "10:14" "right" 1 873.135 1 "29/11/2014" "English" NA NA "male" "Post" "PO" "NonPred" "Old"
"nmTDvGRZx8JwbJ8saKJPKN36o" 2 "3fillerpost2" "Dora_the_explorer_will_put_the_food_in_the_basket" "Can_you_put_the_food_in_the_basket?" "left" "right" "posttest_filler" "7/17/2019" "10:14" "left" 1 1978.135 1 "29/11/2014" "English" NA NA "male" "Post" "PO" "NonPred" "Old"
"nmTDvGRZx8JwbJ8saKJPKN36o" 3 "1Pre2" "The_boy_will_bring_the_giraffe_a_cake" "Can_you_bring_the_giraffe_the_cake?" "left" "right" "pretest" "7/17/2019" "10:14" "right" 0 1196.135 1 "29/11/2014" "English" NA NA "male" "Post" "PO" "NonPred" "Old"
"nmTDvGRZx8JwbJ8saKJPKN36o" 4 "4FillerPre2" "The_king_will_poke_the_jelly_with_the_fork" "Can_you_poke_the_jelly_with_the_fork?" "left" "right" "pretest_filler" "7/17/2019" "10:14" "left" 1 4110.135 1 "29/11/2014" "English" NA NA "male" "Post" "PO" "NonPred" "Old"
"nmTDvGRZx8JwbJ8saKJPKN36o" 5 "4Pre2" "The_king_will_throw_the_turtle_a_squirrel" "Can_you_throw_the_turtle_the_squirrel?" "right" "left" "pretest" "7/17/2019" "10:14" "left" 0 707.135 1 "29/11/2014" "English" NA NA "male" "Post" "PO" "NonPred" "Old"
"nmTDvGRZx8JwbJ8saKJPKN36o" 6 "2Pre2" "The_girl_will_throw_the_elephant_a_clock" "Can_you_throw_the_elephant_the_clock?" "right" "left" "pretest" "7/17/2019" "10:14" "left" 0 2314.135 1 "29/11/2014" "English" NA NA "male" "Post" "PO" "NonPred" "Old"
"nmTDvGRZx8JwbJ8saKJPKN36o" 7 "3Pre2" "Peppa_Pig_will_send_the_hamster_a_toy" "Can_you_send_the_hamster_the_toy?" "left" "right" "pretest" "7/17/2019" "10:14" "left" 1 319.135 1 "29/11/2014" "English" NA NA "male" "Post" "PO" "NonPred" "Old"
"nmTDvGRZx8JwbJ8saKJPKN36o" 8 "1FillerPre2" "Peppa_pig_will_bounce_the_ball_with_the_bat" "Can_you_bounce_the_ball_with_the_bat?" "right" "left" "pretest_filler" "7/17/2019" "10:14" "right" 1 1808.135 1 "29/11/2014" "English" NA NA "male" "Post" "PO" "NonPred" "Old"
