"subject_id" "trial_number" "trial_id" "target_sentence" "question" "target_side" "other_side" "trial_type" "date_stamp" "time_stamp" "side_chosen" "accuracy" "rt" "play_counter" "date_of_birth" "native_lang" "other_langs" "dev_info" "gender" "order" "sentence_type" "animacy" "version"
"8kaNIeSDBgRxeXk4sd8m2I8EY" 1 "4fillerpost2" "The_prince_will_move_the_blanket_to_the_sofa" "Can_you_move_the_blanket_to_the_sofa?" "right" "left" "posttest_filler" "2/7/2020" "10:10" "right" 1 2493.135 1 "2015-05-23" "English" NA NA "female" "Pre" "DO" "NonPred" "New"
"8kaNIeSDBgRxeXk4sd8m2I8EY" 2 "3fillerpost2" "Dora_the_explorer_will_put_the_food_in_the_basket" "Can_you_put_the_food_in_the_basket?" "left" "right" "posttest_filler" "2/7/2020" "10:10" "left" 1 1351.135 1 "2015-05-23" "English" NA NA "female" "Pre" "DO" "NonPred" "New"
"8kaNIeSDBgRxeXk4sd8m2I8EY" 3 "3post2" "Boots_will_throw_the_giraffe_a_balloon" "Can_you_throw_the_giraffe_the_balloon?" "left" "right" "posttest" "2/7/2020" "10:10" "left" 1 2966.135 1 "2015-05-23" "English" NA NA "female" "Pre" "DO" "NonPred" "New"
"8kaNIeSDBgRxeXk4sd8m2I8EY" 4 "6post2" "Dora_the_explorer_will_throw_the_puppy_a_hamster" "Can_you_throw_puppy_the_hamster?" "right" "left" "posttest" "2/7/2020" "10:10" "right" 1 1218.135 1 "2015-05-23" "English" NA NA "female" "Pre" "DO" "NonPred" "New"
"8kaNIeSDBgRxeXk4sd8m2I8EY" 5 "5post2" "The_prince_will_bring_the_turtle_a_cat" "Can_you_bring_the_turtle_the_cat?" "left" "right" "posttest" "2/7/2020" "10:10" "right" 0 2798.135 1 "2015-05-23" "English" NA NA "female" "Pre" "DO" "NonPred" "New"
"8kaNIeSDBgRxeXk4sd8m2I8EY" 6 "1Post2" "The_boy_will_send_the_tiger_a_present" "Can_you_send_the_tiger_the_present?" "right" "left" "posttest" "2/7/2020" "10:10" "right" 1 1718.135 1 "2015-05-23" "English" NA NA "female" "Pre" "DO" "NonPred" "New"
"8kaNIeSDBgRxeXk4sd8m2I8EY" 7 "2fillerpost2" "Boots_will_clean_the_chair_with_the_sponge" "Can_you_clean_the_chair_with_the_sponge?" "right" "left" "posttest_filler" "2/7/2020" "10:10" "right" 1 1449.135 1 "2015-05-23" "English" NA NA "female" "Pre" "DO" "NonPred" "New"
"8kaNIeSDBgRxeXk4sd8m2I8EY" 8 "4Post2" "The_princess_will_send_the_lion_a_crocodile" "Can_you_send_the_lion_the_crocodile?" "right" "left" "posttest" "2/7/2020" "10:10" "right" 1 7823.135 1 "2015-05-23" "English" NA NA "female" "Pre" "DO" "NonPred" "New"
"8kaNIeSDBgRxeXk4sd8m2I8EY" 9 "1fillerpost2" "The_princess_will_tickle_the_teddy_bear_with_the_feather" "Can_you_tickle_the_teddy_bear_with_the_feather?" "left" "right" "posttest_filler" "2/7/2020" "10:10" "left" 1 2309.135 1 "2015-05-23" "English" NA NA "female" "Pre" "DO" "NonPred" "New"
"8kaNIeSDBgRxeXk4sd8m2I8EY" 10 "2post2" "The_girl_will_bring_the_horse_an_ice_cream" "Can_you_bring_the_horse_the_ice_cream?" "left" "right" "posttest" "2/7/2020" "10:10" "left" 1 2744.135 1 "2015-05-23" "English" NA NA "female" "Pre" "DO" "NonPred" "New"
"964xqpw61MpUUIovrX2VDQNp3" 1 "4fillerpost2" "The_prince_will_move_the_blanket_to_the_sofa" "Can_you_move_the_blanket_to_the_sofa?" "right" "left" "posttest_filler" "2/7/2020" "11:09" "right" 1 1986.135 1 "2015-01-07" "English" NA NA "female" "Post" "PO" "Pred" "New"
"964xqpw61MpUUIovrX2VDQNp3" 2 "3fillerpost2" "Dora_the_explorer_will_put_the_food_in_the_basket" "Can_you_put_the_food_in_the_basket?" "left" "right" "posttest_filler" "2/7/2020" "11:09" "left" 1 3819.135 1 "2015-01-07" "English" NA NA "female" "Post" "PO" "Pred" "New"
"964xqpw61MpUUIovrX2VDQNp3" 3 "1FillerPre2" "Peppa_pig_will_bounce_the_ball_with_the_bat" "Can_you_bounce_the_ball_with_the_bat?" "left" "right" "pretest_filler" "2/7/2020" "11:09" "right" 0 803.135 1 "2015-01-07" "English" NA NA "female" "Post" "PO" "Pred" "New"
"964xqpw61MpUUIovrX2VDQNp3" 4 "4FillerPre2" "The_king_will_poke_the_jelly_with_the_fork" "Can_you_poke_the_jelly_with_the_fork?" "right" "left" "pretest_filler" "2/7/2020" "11:09" "right" 1 1147.135 1 "2015-01-07" "English" NA NA "female" "Post" "PO" "Pred" "New"
"964xqpw61MpUUIovrX2VDQNp3" 5 "2Pre2" "The_girl_will_throw_the_elephant_a_clock" "Can_you_throw_the_elephant_the_clock?" "left" "right" "pretest" "2/7/2020" "11:09" "left" 1 2762.135 1 "2015-01-07" "English" NA NA "female" "Post" "PO" "Pred" "New"
"964xqpw61MpUUIovrX2VDQNp3" 6 "5Pre2" "The_queen_will_send_the_monkey_a_horse" "Can_you_send_the_monkey_the_horse?" "left" "right" "pretest" "2/7/2020" "11:09" "left" 1 2446.135 1 "2015-01-07" "English" NA NA "female" "Post" "PO" "Pred" "New"
"964xqpw61MpUUIovrX2VDQNp3" 7 "3Pre2" "Peppa_Pig_will_send_the_hamster_a_toy" "Can_you_send_the_hamster_the_toy?" "left" "right" "pretest" "2/7/2020" "11:09" "right" 0 2261.135 1 "2015-01-07" "English" NA NA "female" "Post" "PO" "Pred" "New"
"964xqpw61MpUUIovrX2VDQNp3" 8 "1Pre2" "The_boy_will_bring_the_giraffe_a_cake" "Can_you_bring_the_giraffe_the_cake?" "right" "left" "pretest" "2/7/2020" "11:09" "right" 1 2620.135 1 "2015-01-07" "English" NA NA "female" "Post" "PO" "Pred" "New"
"964xqpw61MpUUIovrX2VDQNp3" 9 "6Pre2" "Emily_elephant_will_bring_the_mouse_a_rabbit" "Can_you_bring_the_mouse_the_rabbit?" "right" "left" "pretest" "2/7/2020" "11:09" "left" 0 2000.135 1 "2015-01-07" "English" NA NA "female" "Post" "PO" "Pred" "New"
"964xqpw61MpUUIovrX2VDQNp3" 10 "4Pre2" "The_king_will_throw_the_turtle_a_squirrel" "Can_you_throw_the_turtle_the_squirrel?" "right" "left" "pretest" "2/7/2020" "11:09" "right" 1 1315.135 1 "2015-01-07" "English" NA NA "female" "Post" "PO" "Pred" "New"
"aNT3ADMhXssPhLdkeHvoE09Zk" 1 "4fillerpost2" "The_prince_will_move_the_blanket_to_the_sofa" "Can_you_move_the_blanket_to_the_sofa?" "right" "left" "posttest_filler" "11/3/2019" "14:15" "right" 1 2389.135 1 "2015-05-07" "English" NA NA "female" "Pre" "DO" "NonPred" "New"
"aNT3ADMhXssPhLdkeHvoE09Zk" 2 "3fillerpost2" "Dora_the_explorer_will_put_the_food_in_the_basket" "Can_you_put_the_food_in_the_basket?" "left" "right" "posttest_filler" "11/3/2019" "14:15" "left" 1 2779.135 1 "2015-05-07" "English" NA NA "female" "Pre" "DO" "NonPred" "New"
"aNT3ADMhXssPhLdkeHvoE09Zk" 3 "1fillerpost2" "The_princess_will_tickle_the_teddy_bear_with_the_feather" "Can_you_tickle_the_teddy_bear_with_the_feather?" "right" "left" "posttest_filler" "11/3/2019" "14:15" "right" 1 3105.135 1 "2015-05-07" "English" NA NA "female" "Pre" "DO" "NonPred" "New"
"aNT3ADMhXssPhLdkeHvoE09Zk" 4 "1Post2" "The_boy_will_send_the_tiger_a_present" "Can_you_send_the_tiger_the_present?" "right" "left" "posttest" "11/3/2019" "14:15" "right" 1 2034.135 1 "2015-05-07" "English" NA NA "female" "Pre" "DO" "NonPred" "New"
"aNT3ADMhXssPhLdkeHvoE09Zk" 5 "2post2" "The_girl_will_bring_the_horse_an_ice_cream" "Can_you_bring_the_horse_the_ice_cream?" "right" "left" "posttest" "11/3/2019" "14:15" "right" 1 4187.135 1 "2015-05-07" "English" NA NA "female" "Pre" "DO" "NonPred" "New"
"aNT3ADMhXssPhLdkeHvoE09Zk" 6 "5post2" "The_prince_will_bring_the_turtle_a_cat" "Can_you_bring_the_turtle_the_cat?" "right" "left" "posttest" "11/3/2019" "14:15" "right" 1 2346.135 1 "2015-05-07" "English" NA NA "female" "Pre" "DO" "NonPred" "New"
"aNT3ADMhXssPhLdkeHvoE09Zk" 7 "2fillerpost2" "Boots_will_clean_the_chair_with_the_sponge" "Can_you_clean_the_chair_with_the_sponge?" "left" "right" "posttest_filler" "11/3/2019" "14:15" "left" 1 1564.135 1 "2015-05-07" "English" NA NA "female" "Pre" "DO" "NonPred" "New"
"aNT3ADMhXssPhLdkeHvoE09Zk" 8 "6post2" "Dora_the_explorer_will_throw_the_puppy_a_hamster" "Can_you_throw_puppy_the_hamster?" "left" "right" "posttest" "11/3/2019" "14:15" "left" 1 2643.135 1 "2015-05-07" "English" NA NA "female" "Pre" "DO" "NonPred" "New"
"aNT3ADMhXssPhLdkeHvoE09Zk" 9 "3post2" "Boots_will_throw_the_giraffe_a_balloon" "Can_you_throw_the_giraffe_the_balloon?" "left" "right" "posttest" "11/3/2019" "14:15" "left" 1 4468.135 1 "2015-05-07" "English" NA NA "female" "Pre" "DO" "NonPred" "New"
"aNT3ADMhXssPhLdkeHvoE09Zk" 10 "4Post2" "The_princess_will_send_the_lion_a_crocodile" "Can_you_send_the_lion_the_crocodile?" "left" "right" "posttest" "11/3/2019" "14:15" "left" 1 2054.135 1 "2015-05-07" "English" NA NA "female" "Pre" "DO" "NonPred" "New"
"bBPMw1pXg2xQcbdNO95whISwF" 1 "4fillerpost2" "The_prince_will_move_the_blanket_to_the_sofa" "Can_you_move_the_blanket_to_the_sofa?" "right" "left" "posttest_filler" "10/31/2019" "10:57" "right" 1 1834.135 1 "2015-08-29" "English" NA NA "female" "Post" "DO" "NonPred" "New"
"bBPMw1pXg2xQcbdNO95whISwF" 2 "3fillerpost2" "Dora_the_explorer_will_put_the_food_in_the_basket" "Can_you_put_the_food_in_the_basket?" "left" "right" "posttest_filler" "10/31/2019" "10:57" "left" 1 1767.135 1 "2015-08-29" "English" NA NA "female" "Post" "DO" "NonPred" "New"
"bBPMw1pXg2xQcbdNO95whISwF" 3 "5Pre2" "The_queen_will_send_the_monkey_a_horse" "Can_you_send_the_monkey_the_horse?" "left" "right" "pretest" "10/31/2019" "10:57" "right" 0 1578.135 1 "2015-08-29" "English" NA NA "female" "Post" "DO" "NonPred" "New"
"bBPMw1pXg2xQcbdNO95whISwF" 4 "3Pre2" "Peppa_Pig_will_send_the_hamster_a_toy" "Can_you_send_the_hamster_the_toy?" "left" "right" "pretest" "10/31/2019" "10:57" "left" 1 3302.135 1 "2015-08-29" "English" NA NA "female" "Post" "DO" "NonPred" "New"
"bBPMw1pXg2xQcbdNO95whISwF" 5 "2Pre2" "The_girl_will_throw_the_elephant_a_clock" "Can_you_throw_the_elephant_the_clock?" "left" "right" "pretest" "10/31/2019" "10:57" "right" 0 2765.135 1 "2015-08-29" "English" NA NA "female" "Post" "DO" "NonPred" "New"
"bBPMw1pXg2xQcbdNO95whISwF" 6 "6Pre2" "Emily_elephant_will_bring_the_mouse_a_rabbit" "Can_you_bring_the_mouse_the_rabbit?" "left" "right" "pretest" "10/31/2019" "10:57" "left" 1 1882.135 1 "2015-08-29" "English" NA NA "female" "Post" "DO" "NonPred" "New"
"bBPMw1pXg2xQcbdNO95whISwF" 7 "1Pre2" "The_boy_will_bring_the_giraffe_a_cake" "Can_you_bring_the_giraffe_the_cake?" "right" "left" "pretest" "10/31/2019" "10:57" "left" 0 2282.135 1 "2015-08-29" "English" NA NA "female" "Post" "DO" "NonPred" "New"
"bBPMw1pXg2xQcbdNO95whISwF" 8 "4FillerPre2" "The_king_will_poke_the_jelly_with_the_fork" "Can_you_poke_the_jelly_with_the_fork?" "right" "left" "pretest_filler" "10/31/2019" "10:57" "right" 1 2196.135 1 "2015-08-29" "English" NA NA "female" "Post" "DO" "NonPred" "New"
"bBPMw1pXg2xQcbdNO95whISwF" 9 "1FillerPre2" "Peppa_pig_will_bounce_the_ball_with_the_bat" "Can_you_bounce_the_ball_with_the_bat?" "right" "left" "pretest_filler" "10/31/2019" "10:57" "right" 1 626.135 1 "2015-08-29" "English" NA NA "female" "Post" "DO" "NonPred" "New"
"bBPMw1pXg2xQcbdNO95whISwF" 10 "4Pre2" "The_king_will_throw_the_turtle_a_squirrel" "Can_you_throw_the_turtle_the_squirrel?" "right" "left" "pretest" "10/31/2019" "10:57" "right" 1 2963.135 1 "2015-08-29" "English" NA NA "female" "Post" "DO" "NonPred" "New"
"bUILeirU2njqL1gsW5Qfo3WWy" 1 "4fillerpost2" "The_prince_will_move_the_blanket_to_the_sofa" "Can_you_move_the_blanket_to_the_sofa?" "right" "left" "posttest_filler" "2/3/2020" "14:53" "right" 1 1992.135 1 "2015-11-19" "English" NA NA "female" "Post" "DO" "NonPred" "New"
"bUILeirU2njqL1gsW5Qfo3WWy" 2 "3fillerpost2" "Dora_the_explorer_will_put_the_food_in_the_basket" "Can_you_put_the_food_in_the_basket?" "left" "right" "posttest_filler" "2/3/2020" "14:53" "left" 1 3432.135 1 "2015-11-19" "English" NA NA "female" "Post" "DO" "NonPred" "New"
"bUILeirU2njqL1gsW5Qfo3WWy" 3 "1Pre2" "The_boy_will_bring_the_giraffe_a_cake" "Can_you_bring_the_giraffe_the_cake?" "left" "right" "pretest" "2/3/2020" "14:53" "left" 1 2952.135 1 "2015-11-19" "English" NA NA "female" "Post" "DO" "NonPred" "New"
"bUILeirU2njqL1gsW5Qfo3WWy" 4 "2Pre2" "The_girl_will_throw_the_elephant_a_clock" "Can_you_throw_the_elephant_the_clock?" "left" "right" "pretest" "2/3/2020" "14:53" "left" 1 6769.135 1 "2015-11-19" "English" NA NA "female" "Post" "DO" "NonPred" "New"
"bUILeirU2njqL1gsW5Qfo3WWy" 5 "4FillerPre2" "The_king_will_poke_the_jelly_with_the_fork" "Can_you_poke_the_jelly_with_the_fork?" "left" "right" "pretest_filler" "2/3/2020" "14:53" "left" 1 6187.135 1 "2015-11-19" "English" NA NA "female" "Post" "DO" "NonPred" "New"
"bUILeirU2njqL1gsW5Qfo3WWy" 6 "4Pre2" "The_king_will_throw_the_turtle_a_squirrel" "Can_you_throw_the_turtle_the_squirrel?" "right" "left" "pretest" "2/3/2020" "14:53" "left" 0 4811.135 1 "2015-11-19" "English" NA NA "female" "Post" "DO" "NonPred" "New"
"bUILeirU2njqL1gsW5Qfo3WWy" 7 "5Pre2" "The_queen_will_send_the_monkey_a_horse" "Can_you_send_the_monkey_the_horse?" "left" "right" "pretest" "2/3/2020" "14:53" "right" 0 7371.135 1 "2015-11-19" "English" NA NA "female" "Post" "DO" "NonPred" "New"
"bUILeirU2njqL1gsW5Qfo3WWy" 8 "1FillerPre2" "Peppa_pig_will_bounce_the_ball_with_the_bat" "Can_you_bounce_the_ball_with_the_bat?" "right" "left" "pretest_filler" "2/3/2020" "14:53" "right" 1 4375.135 1 "2015-11-19" "English" NA NA "female" "Post" "DO" "NonPred" "New"
"bUILeirU2njqL1gsW5Qfo3WWy" 9 "3Pre2" "Peppa_Pig_will_send_the_hamster_a_toy" "Can_you_send_the_hamster_the_toy?" "right" "left" "pretest" "2/3/2020" "14:53" "right" 1 1824.135 1 "2015-11-19" "English" NA NA "female" "Post" "DO" "NonPred" "New"
"bUILeirU2njqL1gsW5Qfo3WWy" 10 "6Pre2" "Emily_elephant_will_bring_the_mouse_a_rabbit" "Can_you_bring_the_mouse_the_rabbit?" "right" "left" "pretest" "2/3/2020" "14:53" "right" 1 6617.135 1 "2015-11-19" "English" NA NA "female" "Post" "DO" "NonPred" "New"
"e4N1Xcgf0CL9jA0iXxBJuWe4Z" 1 "4fillerpost2" "The_prince_will_move_the_blanket_to_the_sofa" "Can_you_move_the_blanket_to_the_sofa?" "right" "left" "posttest_filler" "11/14/2019" "13:42" "right" 1 1929.135 1 "2015-10-03" "English" "Gujarat" NA "female" "Pre" "DO" "NonPred" "New"
"e4N1Xcgf0CL9jA0iXxBJuWe4Z" 2 "3fillerpost2" "Dora_the_explorer_will_put_the_food_in_the_basket" "Can_you_put_the_food_in_the_basket?" "left" "right" "posttest_filler" "11/14/2019" "13:42" "left" 1 2048.135 1 "2015-10-03" "English" "Gujarat" NA "female" "Pre" "DO" "NonPred" "New"
"e4N1Xcgf0CL9jA0iXxBJuWe4Z" 3 "6post2" "Dora_the_explorer_will_throw_the_puppy_a_hamster" "Can_you_throw_puppy_the_hamster?" "left" "right" "posttest" "11/14/2019" "13:42" "right" 0 2727.135 1 "2015-10-03" "English" "Gujarat" NA "female" "Pre" "DO" "NonPred" "New"
"e4N1Xcgf0CL9jA0iXxBJuWe4Z" 4 "3post2" "Boots_will_throw_the_giraffe_a_balloon" "Can_you_throw_the_giraffe_the_balloon?" "right" "left" "posttest" "11/14/2019" "13:42" "right" 1 1605.135 1 "2015-10-03" "English" "Gujarat" NA "female" "Pre" "DO" "NonPred" "New"
"e4N1Xcgf0CL9jA0iXxBJuWe4Z" 5 "4Post2" "The_princess_will_send_the_lion_a_crocodile" "Can_you_send_the_lion_the_crocodile?" "left" "right" "posttest" "11/14/2019" "13:42" "left" 1 1580.135 2 "2015-10-03" "English" "Gujarat" NA "female" "Pre" "DO" "NonPred" "New"
"e4N1Xcgf0CL9jA0iXxBJuWe4Z" 6 "2post2" "The_girl_will_bring_the_horse_an_ice_cream" "Can_you_bring_the_horse_the_ice_cream?" "left" "right" "posttest" "11/14/2019" "13:42" "left" 1 1771.135 1 "2015-10-03" "English" "Gujarat" NA "female" "Pre" "DO" "NonPred" "New"
"e4N1Xcgf0CL9jA0iXxBJuWe4Z" 7 "1fillerpost2" "The_princess_will_tickle_the_teddy_bear_with_the_feather" "Can_you_tickle_the_teddy_bear_with_the_feather?" "left" "right" "posttest_filler" "11/14/2019" "13:42" "left" 1 1422.135 1 "2015-10-03" "English" "Gujarat" NA "female" "Pre" "DO" "NonPred" "New"
"e4N1Xcgf0CL9jA0iXxBJuWe4Z" 8 "5post2" "The_prince_will_bring_the_turtle_a_cat" "Can_you_bring_the_turtle_the_cat?" "right" "left" "posttest" "11/14/2019" "13:42" "right" 1 4305.135 1 "2015-10-03" "English" "Gujarat" NA "female" "Pre" "DO" "NonPred" "New"
"e4N1Xcgf0CL9jA0iXxBJuWe4Z" 9 "1Post2" "The_boy_will_send_the_tiger_a_present" "Can_you_send_the_tiger_the_present?" "right" "left" "posttest" "11/14/2019" "13:42" "right" 1 2114.135 1 "2015-10-03" "English" "Gujarat" NA "female" "Pre" "DO" "NonPred" "New"
"e4N1Xcgf0CL9jA0iXxBJuWe4Z" 10 "2fillerpost2" "Boots_will_clean_the_chair_with_the_sponge" "Can_you_clean_the_chair_with_the_sponge?" "right" "left" "posttest_filler" "11/14/2019" "13:42" "right" 1 5107.135 1 "2015-10-03" "English" "Gujarat" NA "female" "Pre" "DO" "NonPred" "New"
"frCgVKcPpvCG6hEkjxQRLwzd6" 1 "4fillerpost2" "The_prince_will_move_the_blanket_to_the_sofa" "Can_you_move_the_blanket_to_the_sofa?" "right" "left" "posttest_filler" "11/21/2019" "12:35" "right" 1 2171.135 1 "2015-10-15" "English" NA NA "male" "Pre" "DO" "NonPred" "New"
"frCgVKcPpvCG6hEkjxQRLwzd6" 2 "3fillerpost2" "Dora_the_explorer_will_put_the_food_in_the_basket" "Can_you_put_the_food_in_the_basket?" "left" "right" "posttest_filler" "11/21/2019" "12:35" "left" 1 2408.135 1 "2015-10-15" "English" NA NA "male" "Pre" "DO" "NonPred" "New"
"frCgVKcPpvCG6hEkjxQRLwzd6" 3 "2fillerpost2" "Boots_will_clean_the_chair_with_the_sponge" "Can_you_clean_the_chair_with_the_sponge?" "right" "left" "posttest_filler" "11/21/2019" "12:35" "right" 1 1548.135 1 "2015-10-15" "English" NA NA "male" "Pre" "DO" "NonPred" "New"
"frCgVKcPpvCG6hEkjxQRLwzd6" 4 "2post2" "The_girl_will_bring_the_horse_an_ice_cream" "Can_you_bring_the_horse_the_ice_cream?" "left" "right" "posttest" "11/21/2019" "12:35" "left" 1 3375.135 1 "2015-10-15" "English" NA NA "male" "Pre" "DO" "NonPred" "New"
"frCgVKcPpvCG6hEkjxQRLwzd6" 5 "1Post2" "The_boy_will_send_the_tiger_a_present" "Can_you_send_the_tiger_the_present?" "left" "right" "posttest" "11/21/2019" "12:35" "left" 1 1627.135 1 "2015-10-15" "English" NA NA "male" "Pre" "DO" "NonPred" "New"
"frCgVKcPpvCG6hEkjxQRLwzd6" 6 "4Post2" "The_princess_will_send_the_lion_a_crocodile" "Can_you_send_the_lion_the_crocodile?" "left" "right" "posttest" "11/21/2019" "12:35" "left" 1 3868.135 1 "2015-10-15" "English" NA NA "male" "Pre" "DO" "NonPred" "New"
"frCgVKcPpvCG6hEkjxQRLwzd6" 7 "3post2" "Boots_will_throw_the_giraffe_a_balloon" "Can_you_throw_the_giraffe_the_balloon?" "right" "left" "posttest" "11/21/2019" "12:35" "right" 1 3649.135 1 "2015-10-15" "English" NA NA "male" "Pre" "DO" "NonPred" "New"
"frCgVKcPpvCG6hEkjxQRLwzd6" 8 "1fillerpost2" "The_princess_will_tickle_the_teddy_bear_with_the_feather" "Can_you_tickle_the_teddy_bear_with_the_feather?" "right" "left" "posttest_filler" "11/21/2019" "12:35" "right" 1 2538.135 1 "2015-10-15" "English" NA NA "male" "Pre" "DO" "NonPred" "New"
"frCgVKcPpvCG6hEkjxQRLwzd6" 9 "5post2" "The_prince_will_bring_the_turtle_a_cat" "Can_you_bring_the_turtle_the_cat?" "right" "left" "posttest" "11/21/2019" "12:35" "right" 1 2208.135 1 "2015-10-15" "English" NA NA "male" "Pre" "DO" "NonPred" "New"
"frCgVKcPpvCG6hEkjxQRLwzd6" 10 "6post2" "Dora_the_explorer_will_throw_the_puppy_a_hamster" "Can_you_throw_puppy_the_hamster?" "left" "right" "posttest" "11/21/2019" "12:35" "right" 0 1904.135 1 "2015-10-15" "English" NA NA "male" "Pre" "DO" "NonPred" "New"
"G1JHJHVD4Sp56128JgftMIHs5" 1 "4fillerpost2" "The_prince_will_move_the_blanket_to_the_sofa" "Can_you_move_the_blanket_to_the_sofa?" "right" "left" "posttest_filler" "11/3/2019" "12:02" "left" 0 2997.135 1 "2015-07-16" "English" NA NA "female" "Post" "DO" "NonPred" "New"
"G1JHJHVD4Sp56128JgftMIHs5" 2 "3fillerpost2" "Dora_the_explorer_will_put_the_food_in_the_basket" "Can_you_put_the_food_in_the_basket?" "left" "right" "posttest_filler" "11/3/2019" "12:02" "right" 0 1644.135 1 "2015-07-16" "English" NA NA "female" "Post" "DO" "NonPred" "New"
"G1JHJHVD4Sp56128JgftMIHs5" 3 "3Pre2" "Peppa_Pig_will_send_the_hamster_a_toy" "Can_you_send_the_hamster_the_toy?" "right" "left" "pretest" "11/3/2019" "12:02" "right" 1 3218.135 1 "2015-07-16" "English" NA NA "female" "Post" "DO" "NonPred" "New"
"G1JHJHVD4Sp56128JgftMIHs5" 4 "1FillerPre2" "Peppa_pig_will_bounce_the_ball_with_the_bat" "Can_you_bounce_the_ball_with_the_bat?" "right" "left" "pretest_filler" "11/3/2019" "12:02" "left" 0 2592.135 1 "2015-07-16" "English" NA NA "female" "Post" "DO" "NonPred" "New"
"G1JHJHVD4Sp56128JgftMIHs5" 5 "2Pre2" "The_girl_will_throw_the_elephant_a_clock" "Can_you_throw_the_elephant_the_clock?" "left" "right" "pretest" "11/3/2019" "12:02" "right" 0 5119.135 1 "2015-07-16" "English" NA NA "female" "Post" "DO" "NonPred" "New"
"G1JHJHVD4Sp56128JgftMIHs5" 6 "1Pre2" "The_boy_will_bring_the_giraffe_a_cake" "Can_you_bring_the_giraffe_the_cake?" "right" "left" "pretest" "11/3/2019" "12:02" "right" 1 4730.135 1 "2015-07-16" "English" NA NA "female" "Post" "DO" "NonPred" "New"
"G1JHJHVD4Sp56128JgftMIHs5" 7 "6Pre2" "Emily_elephant_will_bring_the_mouse_a_rabbit" "Can_you_bring_the_mouse_the_rabbit?" "right" "left" "pretest" "11/3/2019" "12:02" "left" 0 2537.135 1 "2015-07-16" "English" NA NA "female" "Post" "DO" "NonPred" "New"
"G1JHJHVD4Sp56128JgftMIHs5" 8 "4FillerPre2" "The_king_will_poke_the_jelly_with_the_fork" "Can_you_poke_the_jelly_with_the_fork?" "left" "right" "pretest_filler" "11/3/2019" "12:02" "left" 1 3024.135 1 "2015-07-16" "English" NA NA "female" "Post" "DO" "NonPred" "New"
"G1JHJHVD4Sp56128JgftMIHs5" 9 "4Pre2" "The_king_will_throw_the_turtle_a_squirrel" "Can_you_throw_the_turtle_the_squirrel?" "left" "right" "pretest" "11/3/2019" "12:02" "right" 0 1966.135 1 "2015-07-16" "English" NA NA "female" "Post" "DO" "NonPred" "New"
"G1JHJHVD4Sp56128JgftMIHs5" 10 "5Pre2" "The_queen_will_send_the_monkey_a_horse" "Can_you_send_the_monkey_the_horse?" "left" "right" "pretest" "11/3/2019" "12:02" "right" 0 6659.135 1 "2015-07-16" "English" NA NA "female" "Post" "DO" "NonPred" "New"
"HW1ZejRAh2Dbrb4HzUL0Vqlth" 1 "4fillerpost2" "The_prince_will_move_the_blanket_to_the_sofa" "Can_you_move_the_blanket_to_the_sofa?" "right" "left" "posttest_filler" "1/24/2020" "14:46" "right" 1 2121.135 1 "2014-10-04" "English" NA NA "female" "Pre" "DO" "NonPred" "New"
"HW1ZejRAh2Dbrb4HzUL0Vqlth" 2 "3fillerpost2" "Dora_the_explorer_will_put_the_food_in_the_basket" "Can_you_put_the_food_in_the_basket?" "left" "right" "posttest_filler" "1/24/2020" "14:46" "left" 1 3552.135 1 "2014-10-04" "English" NA NA "female" "Pre" "DO" "NonPred" "New"
"HW1ZejRAh2Dbrb4HzUL0Vqlth" 3 "5post2" "The_prince_will_bring_the_turtle_a_cat" "Can_you_bring_the_turtle_the_cat?" "left" "right" "posttest" "1/24/2020" "14:46" "right" 0 2327.135 1 "2014-10-04" "English" NA NA "female" "Pre" "DO" "NonPred" "New"
"HW1ZejRAh2Dbrb4HzUL0Vqlth" 4 "1Post2" "The_boy_will_send_the_tiger_a_present" "Can_you_send_the_tiger_the_present?" "left" "right" "posttest" "1/24/2020" "14:46" "left" 1 6784.135 1 "2014-10-04" "English" NA NA "female" "Pre" "DO" "NonPred" "New"
"HW1ZejRAh2Dbrb4HzUL0Vqlth" 5 "3post2" "Boots_will_throw_the_giraffe_a_balloon" "Can_you_throw_the_giraffe_the_balloon?" "right" "left" "posttest" "1/24/2020" "14:46" "left" 0 3578.135 1 "2014-10-04" "English" NA NA "female" "Pre" "DO" "NonPred" "New"
"HW1ZejRAh2Dbrb4HzUL0Vqlth" 6 "2post2" "The_girl_will_bring_the_horse_an_ice_cream" "Can_you_bring_the_horse_the_ice_cream?" "right" "left" "posttest" "1/24/2020" "14:46" "left" 0 6072.135 1 "2014-10-04" "English" NA NA "female" "Pre" "DO" "NonPred" "New"
"HW1ZejRAh2Dbrb4HzUL0Vqlth" 7 "4Post2" "The_princess_will_send_the_lion_a_crocodile" "Can_you_send_the_lion_the_crocodile?" "left" "right" "posttest" "1/24/2020" "14:46" "right" 0 1491.135 1 "2014-10-04" "English" NA NA "female" "Pre" "DO" "NonPred" "New"
"HW1ZejRAh2Dbrb4HzUL0Vqlth" 8 "6post2" "Dora_the_explorer_will_throw_the_puppy_a_hamster" "Can_you_throw_puppy_the_hamster?" "right" "left" "posttest" "1/24/2020" "14:46" "left" 0 3949.135 1 "2014-10-04" "English" NA NA "female" "Pre" "DO" "NonPred" "New"
"HW1ZejRAh2Dbrb4HzUL0Vqlth" 9 "1fillerpost2" "The_princess_will_tickle_the_teddy_bear_with_the_feather" "Can_you_tickle_the_teddy_bear_with_the_feather?" "left" "right" "posttest_filler" "1/24/2020" "14:46" "left" 1 3978.135 1 "2014-10-04" "English" NA NA "female" "Pre" "DO" "NonPred" "New"
"HW1ZejRAh2Dbrb4HzUL0Vqlth" 10 "2fillerpost2" "Boots_will_clean_the_chair_with_the_sponge" "Can_you_clean_the_chair_with_the_sponge?" "right" "left" "posttest_filler" "1/24/2020" "14:46" "right" 1 4261.135 1 "2014-10-04" "English" NA NA "female" "Pre" "DO" "NonPred" "New"
"iYd8694mJbdt2PEmB5VuW9EY0" 1 "4fillerpost2" "The_prince_will_move_the_blanket_to_the_sofa" "Can_you_move_the_blanket_to_the_sofa?" "right" "left" "posttest_filler" "1/24/2020" "14:06" "right" 1 2229.135 1 "2015-03-09" "English" "Arabic" NA "female" "Pre" "DO" "NonPred" "New"
"iYd8694mJbdt2PEmB5VuW9EY0" 2 "3fillerpost2" "Dora_the_explorer_will_put_the_food_in_the_basket" "Can_you_put_the_food_in_the_basket?" "left" "right" "posttest_filler" "1/24/2020" "14:06" "left" 1 921.135 1 "2015-03-09" "English" "Arabic" NA "female" "Pre" "DO" "NonPred" "New"
"iYd8694mJbdt2PEmB5VuW9EY0" 3 "5post2" "The_prince_will_bring_the_turtle_a_cat" "Can_you_bring_the_turtle_the_cat?" "left" "right" "posttest" "1/24/2020" "14:06" "left" 1 3456.135 1 "2015-03-09" "English" "Arabic" NA "female" "Pre" "DO" "NonPred" "New"
"iYd8694mJbdt2PEmB5VuW9EY0" 4 "1fillerpost2" "The_princess_will_tickle_the_teddy_bear_with_the_feather" "Can_you_tickle_the_teddy_bear_with_the_feather?" "right" "left" "posttest_filler" "1/24/2020" "14:06" "right" 1 5529.135 1 "2015-03-09" "English" "Arabic" NA "female" "Pre" "DO" "NonPred" "New"
"iYd8694mJbdt2PEmB5VuW9EY0" 5 "4Post2" "The_princess_will_send_the_lion_a_crocodile" "Can_you_send_the_lion_the_crocodile?" "left" "right" "posttest" "1/24/2020" "14:06" "right" 0 3723.135 1 "2015-03-09" "English" "Arabic" NA "female" "Pre" "DO" "NonPred" "New"
"iYd8694mJbdt2PEmB5VuW9EY0" 6 "2post2" "The_girl_will_bring_the_horse_an_ice_cream" "Can_you_bring_the_horse_the_ice_cream?" "right" "left" "posttest" "1/24/2020" "14:06" "right" 1 1257.135 1 "2015-03-09" "English" "Arabic" NA "female" "Pre" "DO" "NonPred" "New"
"iYd8694mJbdt2PEmB5VuW9EY0" 7 "3post2" "Boots_will_throw_the_giraffe_a_balloon" "Can_you_throw_the_giraffe_the_balloon?" "right" "left" "posttest" "1/24/2020" "14:06" "left" 0 10295.135 1 "2015-03-09" "English" "Arabic" NA "female" "Pre" "DO" "NonPred" "New"
"iYd8694mJbdt2PEmB5VuW9EY0" 8 "6post2" "Dora_the_explorer_will_throw_the_puppy_a_hamster" "Can_you_throw_puppy_the_hamster?" "right" "left" "posttest" "1/24/2020" "14:06" "left" 0 3403.135 1 "2015-03-09" "English" "Arabic" NA "female" "Pre" "DO" "NonPred" "New"
"iYd8694mJbdt2PEmB5VuW9EY0" 9 "2fillerpost2" "Boots_will_clean_the_chair_with_the_sponge" "Can_you_clean_the_chair_with_the_sponge?" "left" "right" "posttest_filler" "1/24/2020" "14:06" "left" 1 2294.135 1 "2015-03-09" "English" "Arabic" NA "female" "Pre" "DO" "NonPred" "New"
"iYd8694mJbdt2PEmB5VuW9EY0" 10 "1Post2" "The_boy_will_send_the_tiger_a_present" "Can_you_send_the_tiger_the_present?" "left" "right" "posttest" "1/24/2020" "14:06" "left" 1 2704.135 1 "2015-03-09" "English" "Arabic" NA "female" "Pre" "DO" "NonPred" "New"
"LiHE860tnPFQN3TkrsjdCyR5a" 1 "4fillerpost2" "The_prince_will_move_the_blanket_to_the_sofa" "Can_you_move_the_blanket_to_the_sofa?" "right" "left" "posttest_filler" "11/6/2019" "09:59" "right" 1 1743.135 1 "2015-09-10" "English" "Greek" NA "male" "Post" "DO" "NonPred" "New"
"LiHE860tnPFQN3TkrsjdCyR5a" 2 "3fillerpost2" "Dora_the_explorer_will_put_the_food_in_the_basket" "Can_you_put_the_food_in_the_basket?" "left" "right" "posttest_filler" "11/6/2019" "09:59" "left" 1 2712.135 1 "2015-09-10" "English" "Greek" NA "male" "Post" "DO" "NonPred" "New"
"LiHE860tnPFQN3TkrsjdCyR5a" 3 "1Pre2" "The_boy_will_bring_the_giraffe_a_cake" "Can_you_bring_the_giraffe_the_cake?" "left" "right" "pretest" "11/6/2019" "09:59" "left" 1 1584.135 1 "2015-09-10" "English" "Greek" NA "male" "Post" "DO" "NonPred" "New"
"LiHE860tnPFQN3TkrsjdCyR5a" 4 "4FillerPre2" "The_king_will_poke_the_jelly_with_the_fork" "Can_you_poke_the_jelly_with_the_fork?" "right" "left" "pretest_filler" "11/6/2019" "09:59" "left" 0 1024.135 1 "2015-09-10" "English" "Greek" NA "male" "Post" "DO" "NonPred" "New"
"LiHE860tnPFQN3TkrsjdCyR5a" 5 "5Pre2" "The_queen_will_send_the_monkey_a_horse" "Can_you_send_the_monkey_the_horse?" "right" "left" "pretest" "11/6/2019" "09:59" "left" 0 2126.135 1 "2015-09-10" "English" "Greek" NA "male" "Post" "DO" "NonPred" "New"
"LiHE860tnPFQN3TkrsjdCyR5a" 6 "6Pre2" "Emily_elephant_will_bring_the_mouse_a_rabbit" "Can_you_bring_the_mouse_the_rabbit?" "left" "right" "pretest" "11/6/2019" "09:59" "left" 1 2223.135 1 "2015-09-10" "English" "Greek" NA "male" "Post" "DO" "NonPred" "New"
"LiHE860tnPFQN3TkrsjdCyR5a" 7 "3Pre2" "Peppa_Pig_will_send_the_hamster_a_toy" "Can_you_send_the_hamster_the_toy?" "right" "left" "pretest" "11/6/2019" "09:59" "right" 1 1620.135 1 "2015-09-10" "English" "Greek" NA "male" "Post" "DO" "NonPred" "New"
"LiHE860tnPFQN3TkrsjdCyR5a" 8 "4Pre2" "The_king_will_throw_the_turtle_a_squirrel" "Can_you_throw_the_turtle_the_squirrel?" "left" "right" "pretest" "11/6/2019" "09:59" "left" 1 2175.135 1 "2015-09-10" "English" "Greek" NA "male" "Post" "DO" "NonPred" "New"
"LiHE860tnPFQN3TkrsjdCyR5a" 9 "1FillerPre2" "Peppa_pig_will_bounce_the_ball_with_the_bat" "Can_you_bounce_the_ball_with_the_bat?" "left" "right" "pretest_filler" "11/6/2019" "09:59" "right" 0 2246.135 1 "2015-09-10" "English" "Greek" NA "male" "Post" "DO" "NonPred" "New"
"LiHE860tnPFQN3TkrsjdCyR5a" 10 "2Pre2" "The_girl_will_throw_the_elephant_a_clock" "Can_you_throw_the_elephant_the_clock?" "right" "left" "pretest" "11/6/2019" "09:59" "left" 0 1807.135 1 "2015-09-10" "English" "Greek" NA "male" "Post" "DO" "NonPred" "New"
"N6YbafrdqX3jsdevpEjex6QE9" 1 "4fillerpost2" "The_prince_will_move_the_blanket_to_the_sofa" "Can_you_move_the_blanket_to_the_sofa?" "right" "left" "posttest_filler" "11/19/2019" "17:00" "right" 1 3382.135 1 "2015-08-11" "English" "Welsh" NA "female" "Post" "DO" "NonPred" "New"
"N6YbafrdqX3jsdevpEjex6QE9" 2 "3fillerpost2" "Dora_the_explorer_will_put_the_food_in_the_basket" "Can_you_put_the_food_in_the_basket?" "left" "right" "posttest_filler" "11/19/2019" "17:00" "left" 1 2407.135 1 "2015-08-11" "English" "Welsh" NA "female" "Post" "DO" "NonPred" "New"
"N6YbafrdqX3jsdevpEjex6QE9" 3 "4Pre2" "The_king_will_throw_the_turtle_a_squirrel" "Can_you_throw_the_turtle_the_squirrel?" "right" "left" "pretest" "11/19/2019" "17:00" "right" 1 3439.135 1 "2015-08-11" "English" "Welsh" NA "female" "Post" "DO" "NonPred" "New"
"N6YbafrdqX3jsdevpEjex6QE9" 4 "2Pre2" "The_girl_will_throw_the_elephant_a_clock" "Can_you_throw_the_elephant_the_clock?" "right" "left" "pretest" "11/19/2019" "17:00" "left" 0 2244.135 1 "2015-08-11" "English" "Welsh" NA "female" "Post" "DO" "NonPred" "New"
"N6YbafrdqX3jsdevpEjex6QE9" 5 "3Pre2" "Peppa_Pig_will_send_the_hamster_a_toy" "Can_you_send_the_hamster_the_toy?" "left" "right" "pretest" "11/19/2019" "17:00" "left" 1 1682.135 1 "2015-08-11" "English" "Welsh" NA "female" "Post" "DO" "NonPred" "New"
"N6YbafrdqX3jsdevpEjex6QE9" 6 "5Pre2" "The_queen_will_send_the_monkey_a_horse" "Can_you_send_the_monkey_the_horse?" "right" "left" "pretest" "11/19/2019" "17:00" "right" 1 2593.135 1 "2015-08-11" "English" "Welsh" NA "female" "Post" "DO" "NonPred" "New"
"N6YbafrdqX3jsdevpEjex6QE9" 7 "1Pre2" "The_boy_will_bring_the_giraffe_a_cake" "Can_you_bring_the_giraffe_the_cake?" "left" "right" "pretest" "11/19/2019" "17:00" "left" 1 1005.135 1 "2015-08-11" "English" "Welsh" NA "female" "Post" "DO" "NonPred" "New"
"N6YbafrdqX3jsdevpEjex6QE9" 8 "4FillerPre2" "The_king_will_poke_the_jelly_with_the_fork" "Can_you_poke_the_jelly_with_the_fork?" "right" "left" "pretest_filler" "11/19/2019" "17:00" "right" 1 4169.135 1 "2015-08-11" "English" "Welsh" NA "female" "Post" "DO" "NonPred" "New"
"N6YbafrdqX3jsdevpEjex6QE9" 9 "6Pre2" "Emily_elephant_will_bring_the_mouse_a_rabbit" "Can_you_bring_the_mouse_the_rabbit?" "left" "right" "pretest" "11/19/2019" "17:00" "right" 0 4681.135 1 "2015-08-11" "English" "Welsh" NA "female" "Post" "DO" "NonPred" "New"
"N6YbafrdqX3jsdevpEjex6QE9" 10 "1FillerPre2" "Peppa_pig_will_bounce_the_ball_with_the_bat" "Can_you_bounce_the_ball_with_the_bat?" "left" "right" "pretest_filler" "11/19/2019" "17:00" "left" 1 2243.135 1 "2015-08-11" "English" "Welsh" NA "female" "Post" "DO" "NonPred" "New"
"pcQEXviATeL9Lpwm7239r9t8d" 1 "4fillerpost2" "The_prince_will_move_the_blanket_to_the_sofa" "Can_you_move_the_blanket_to_the_sofa?" "right" "left" "posttest_filler" "1/24/2020" "14:27" "right" 1 1919.135 1 "2015-07-28" "English" NA NA "female" "Post" "DO" "NonPred" "New"
"pcQEXviATeL9Lpwm7239r9t8d" 2 "3fillerpost2" "Dora_the_explorer_will_put_the_food_in_the_basket" "Can_you_put_the_food_in_the_basket?" "left" "right" "posttest_filler" "1/24/2020" "14:27" "left" 1 2132.135 1 "2015-07-28" "English" NA NA "female" "Post" "DO" "NonPred" "New"
"pcQEXviATeL9Lpwm7239r9t8d" 3 "3Pre2" "Peppa_Pig_will_send_the_hamster_a_toy" "Can_you_send_the_hamster_the_toy?" "left" "right" "pretest" "1/24/2020" "14:27" "left" 1 1391.135 1 "2015-07-28" "English" NA NA "female" "Post" "DO" "NonPred" "New"
"pcQEXviATeL9Lpwm7239r9t8d" 4 "1Pre2" "The_boy_will_bring_the_giraffe_a_cake" "Can_you_bring_the_giraffe_the_cake?" "right" "left" "pretest" "1/24/2020" "14:27" "right" 1 3021.135 1 "2015-07-28" "English" NA NA "female" "Post" "DO" "NonPred" "New"
"pcQEXviATeL9Lpwm7239r9t8d" 5 "4Pre2" "The_king_will_throw_the_turtle_a_squirrel" "Can_you_throw_the_turtle_the_squirrel?" "left" "right" "pretest" "1/24/2020" "14:27" "left" 1 1132.135 1 "2015-07-28" "English" NA NA "female" "Post" "DO" "NonPred" "New"
"pcQEXviATeL9Lpwm7239r9t8d" 6 "6Pre2" "Emily_elephant_will_bring_the_mouse_a_rabbit" "Can_you_bring_the_mouse_the_rabbit?" "right" "left" "pretest" "1/24/2020" "14:27" "right" 1 1028.135 1 "2015-07-28" "English" NA NA "female" "Post" "DO" "NonPred" "New"
"pcQEXviATeL9Lpwm7239r9t8d" 7 "5Pre2" "The_queen_will_send_the_monkey_a_horse" "Can_you_send_the_monkey_the_horse?" "left" "right" "pretest" "1/24/2020" "14:27" "right" 0 1580.135 1 "2015-07-28" "English" NA NA "female" "Post" "DO" "NonPred" "New"
"pcQEXviATeL9Lpwm7239r9t8d" 8 "1FillerPre2" "Peppa_pig_will_bounce_the_ball_with_the_bat" "Can_you_bounce_the_ball_with_the_bat?" "right" "left" "pretest_filler" "1/24/2020" "14:27" "right" 1 931.135 1 "2015-07-28" "English" NA NA "female" "Post" "DO" "NonPred" "New"
"pcQEXviATeL9Lpwm7239r9t8d" 9 "2Pre2" "The_girl_will_throw_the_elephant_a_clock" "Can_you_throw_the_elephant_the_clock?" "right" "left" "pretest" "1/24/2020" "14:27" "left" 0 2627.135 1 "2015-07-28" "English" NA NA "female" "Post" "DO" "NonPred" "New"
"pcQEXviATeL9Lpwm7239r9t8d" 10 "4FillerPre2" "The_king_will_poke_the_jelly_with_the_fork" "Can_you_poke_the_jelly_with_the_fork?" "left" "right" "pretest_filler" "1/24/2020" "14:27" "left" 1 2032.135 1 "2015-07-28" "English" NA NA "female" "Post" "DO" "NonPred" "New"
"PDiTsBdGvbbMVdZTRwOSckPgl" 1 "4fillerpost2" "The_prince_will_move_the_blanket_to_the_sofa" "Can_you_move_the_blanket_to_the_sofa?" "right" "left" "posttest_filler" "12/18/2019" "15:51" "right" 1 2050.135 1 "2015-10-14" "English" NA NA "male" "Post" "DO" "NonPred" "New"
"PDiTsBdGvbbMVdZTRwOSckPgl" 2 "3fillerpost2" "Dora_the_explorer_will_put_the_food_in_the_basket" "Can_you_put_the_food_in_the_basket?" "left" "right" "posttest_filler" "12/18/2019" "15:51" "left" 1 2308.135 1 "2015-10-14" "English" NA NA "male" "Post" "DO" "NonPred" "New"
"PDiTsBdGvbbMVdZTRwOSckPgl" 3 "6Pre2" "Emily_elephant_will_bring_the_mouse_a_rabbit" "Can_you_bring_the_mouse_the_rabbit?" "right" "left" "pretest" "12/18/2019" "15:51" "left" 0 2239.135 1 "2015-10-14" "English" NA NA "male" "Post" "DO" "NonPred" "New"
"PDiTsBdGvbbMVdZTRwOSckPgl" 4 "1FillerPre2" "Peppa_pig_will_bounce_the_ball_with_the_bat" "Can_you_bounce_the_ball_with_the_bat?" "left" "right" "pretest_filler" "12/18/2019" "15:51" "right" 0 1852.135 1 "2015-10-14" "English" NA NA "male" "Post" "DO" "NonPred" "New"
"PDiTsBdGvbbMVdZTRwOSckPgl" 5 "5Pre2" "The_queen_will_send_the_monkey_a_horse" "Can_you_send_the_monkey_the_horse?" "left" "right" "pretest" "12/18/2019" "15:51" "right" 0 1774.135 1 "2015-10-14" "English" NA NA "male" "Post" "DO" "NonPred" "New"
"PDiTsBdGvbbMVdZTRwOSckPgl" 6 "4Pre2" "The_king_will_throw_the_turtle_a_squirrel" "Can_you_throw_the_turtle_the_squirrel?" "left" "right" "pretest" "12/18/2019" "15:51" "right" 0 4053.135 2 "2015-10-14" "English" NA NA "male" "Post" "DO" "NonPred" "New"
"PDiTsBdGvbbMVdZTRwOSckPgl" 7 "4FillerPre2" "The_king_will_poke_the_jelly_with_the_fork" "Can_you_poke_the_jelly_with_the_fork?" "right" "left" "pretest_filler" "12/18/2019" "15:51" "right" 1 1756.135 1 "2015-10-14" "English" NA NA "male" "Post" "DO" "NonPred" "New"
"PDiTsBdGvbbMVdZTRwOSckPgl" 8 "1Pre2" "The_boy_will_bring_the_giraffe_a_cake" "Can_you_bring_the_giraffe_the_cake?" "right" "left" "pretest" "12/18/2019" "15:51" "left" 0 318.135 1 "2015-10-14" "English" NA NA "male" "Post" "DO" "NonPred" "New"
"PDiTsBdGvbbMVdZTRwOSckPgl" 9 "3Pre2" "Peppa_Pig_will_send_the_hamster_a_toy" "Can_you_send_the_hamster_the_toy?" "left" "right" "pretest" "12/18/2019" "15:51" "right" 0 2241.135 1 "2015-10-14" "English" NA NA "male" "Post" "DO" "NonPred" "New"
"PDiTsBdGvbbMVdZTRwOSckPgl" 10 "2Pre2" "The_girl_will_throw_the_elephant_a_clock" "Can_you_throw_the_elephant_the_clock?" "right" "left" "pretest" "12/18/2019" "15:51" "left" 0 3757.135 1 "2015-10-14" "English" NA NA "male" "Post" "DO" "NonPred" "New"
"QYYc7nzdtOkY3Ji2RUqPUouQE" 1 "4fillerpost2" "The_prince_will_move_the_blanket_to_the_sofa" "Can_you_move_the_blanket_to_the_sofa?" "right" "left" "posttest_filler" "1/20/2020" "14:52" "right" 1 1781.135 1 "2015-12-21" "English" "Lithuanian" NA "female" "Pre" "DO" "NonPred" "New"
"QYYc7nzdtOkY3Ji2RUqPUouQE" 2 "3fillerpost2" "Dora_the_explorer_will_put_the_food_in_the_basket" "Can_you_put_the_food_in_the_basket?" "left" "right" "posttest_filler" "1/20/2020" "14:52" "left" 1 4476.135 1 "2015-12-21" "English" "Lithuanian" NA "female" "Pre" "DO" "NonPred" "New"
"QYYc7nzdtOkY3Ji2RUqPUouQE" 3 "2post2" "The_girl_will_bring_the_horse_an_ice_cream" "Can_you_bring_the_horse_the_ice_cream?" "right" "left" "posttest" "1/20/2020" "14:52" "left" 0 2544.135 1 "2015-12-21" "English" "Lithuanian" NA "female" "Pre" "DO" "NonPred" "New"
"QYYc7nzdtOkY3Ji2RUqPUouQE" 4 "6post2" "Dora_the_explorer_will_throw_the_puppy_a_hamster" "Can_you_throw_puppy_the_hamster?" "left" "right" "posttest" "1/20/2020" "14:52" "right" 0 2916.135 1 "2015-12-21" "English" "Lithuanian" NA "female" "Pre" "DO" "NonPred" "New"
"QYYc7nzdtOkY3Ji2RUqPUouQE" 5 "4Post2" "The_princess_will_send_the_lion_a_crocodile" "Can_you_send_the_lion_the_crocodile?" "left" "right" "posttest" "1/20/2020" "14:52" "right" 0 5283.135 1 "2015-12-21" "English" "Lithuanian" NA "female" "Pre" "DO" "NonPred" "New"
"QYYc7nzdtOkY3Ji2RUqPUouQE" 6 "1fillerpost2" "The_princess_will_tickle_the_teddy_bear_with_the_feather" "Can_you_tickle_the_teddy_bear_with_the_feather?" "left" "right" "posttest_filler" "1/20/2020" "14:52" "left" 1 3674.135 1 "2015-12-21" "English" "Lithuanian" NA "female" "Pre" "DO" "NonPred" "New"
"QYYc7nzdtOkY3Ji2RUqPUouQE" 7 "3post2" "Boots_will_throw_the_giraffe_a_balloon" "Can_you_throw_the_giraffe_the_balloon?" "left" "right" "posttest" "1/20/2020" "14:52" "right" 0 8276.135 1 "2015-12-21" "English" "Lithuanian" NA "female" "Pre" "DO" "NonPred" "New"
"QYYc7nzdtOkY3Ji2RUqPUouQE" 8 "5post2" "The_prince_will_bring_the_turtle_a_cat" "Can_you_bring_the_turtle_the_cat?" "right" "left" "posttest" "1/20/2020" "14:52" "left" 0 8071.135 1 "2015-12-21" "English" "Lithuanian" NA "female" "Pre" "DO" "NonPred" "New"
"QYYc7nzdtOkY3Ji2RUqPUouQE" 9 "2fillerpost2" "Boots_will_clean_the_chair_with_the_sponge" "Can_you_clean_the_chair_with_the_sponge?" "right" "left" "posttest_filler" "1/20/2020" "14:52" "right" 1 1468.135 1 "2015-12-21" "English" "Lithuanian" NA "female" "Pre" "DO" "NonPred" "New"
"QYYc7nzdtOkY3Ji2RUqPUouQE" 10 "1Post2" "The_boy_will_send_the_tiger_a_present" "Can_you_send_the_tiger_the_present?" "right" "left" "posttest" "1/20/2020" "14:52" "left" 0 1470.135 1 "2015-12-21" "English" "Lithuanian" NA "female" "Pre" "DO" "NonPred" "New"
"RYBLWpuTFMDI9nL2nYHnJk9Xo" 1 "4fillerpost2" "The_prince_will_move_the_blanket_to_the_sofa" "Can_you_move_the_blanket_to_the_sofa?" "right" "left" "posttest_filler" "2/7/2020" "10:27" "right" 1 1765.135 1 "2015-06-16" "English" NA NA "female" "Pre" "PO" "Pred" "New"
"RYBLWpuTFMDI9nL2nYHnJk9Xo" 2 "3fillerpost2" "Dora_the_explorer_will_put_the_food_in_the_basket" "Can_you_put_the_food_in_the_basket?" "left" "right" "posttest_filler" "2/7/2020" "10:27" "left" 1 2556.135 1 "2015-06-16" "English" NA NA "female" "Pre" "PO" "Pred" "New"
"RYBLWpuTFMDI9nL2nYHnJk9Xo" 3 "1Post2" "The_boy_will_send_the_tiger_a_present" "Can_you_send_the_tiger_the_present?" "left" "right" "posttest" "2/7/2020" "10:27" "left" 1 1317.135 1 "2015-06-16" "English" NA NA "female" "Pre" "PO" "Pred" "New"
"RYBLWpuTFMDI9nL2nYHnJk9Xo" 4 "2fillerpost2" "Boots_will_clean_the_chair_with_the_sponge" "Can_you_clean_the_chair_with_the_sponge?" "left" "right" "posttest_filler" "2/7/2020" "10:27" "left" 1 1078.135 1 "2015-06-16" "English" NA NA "female" "Pre" "PO" "Pred" "New"
"RYBLWpuTFMDI9nL2nYHnJk9Xo" 5 "3post2" "Boots_will_throw_the_giraffe_a_balloon" "Can_you_throw_the_giraffe_the_balloon?" "right" "left" "posttest" "2/7/2020" "10:27" "right" 1 1198.135 1 "2015-06-16" "English" NA NA "female" "Pre" "PO" "Pred" "New"
"RYBLWpuTFMDI9nL2nYHnJk9Xo" 6 "2post2" "The_girl_will_bring_the_horse_an_ice_cream" "Can_you_bring_the_horse_the_ice_cream?" "left" "right" "posttest" "2/7/2020" "10:27" "left" 1 2080.135 1 "2015-06-16" "English" NA NA "female" "Pre" "PO" "Pred" "New"
"RYBLWpuTFMDI9nL2nYHnJk9Xo" 7 "6post2" "Dora_the_explorer_will_throw_the_puppy_a_hamster" "Can_you_throw_puppy_the_hamster?" "right" "left" "posttest" "2/7/2020" "10:27" "left" 0 1785.135 1 "2015-06-16" "English" NA NA "female" "Pre" "PO" "Pred" "New"
"RYBLWpuTFMDI9nL2nYHnJk9Xo" 8 "4Post2" "The_princess_will_send_the_lion_a_crocodile" "Can_you_send_the_lion_the_crocodile?" "right" "left" "posttest" "2/7/2020" "10:27" "left" 0 1851.135 1 "2015-06-16" "English" NA NA "female" "Pre" "PO" "Pred" "New"
"RYBLWpuTFMDI9nL2nYHnJk9Xo" 9 "5post2" "The_prince_will_bring_the_turtle_a_cat" "Can_you_bring_the_turtle_the_cat?" "right" "left" "posttest" "2/7/2020" "10:27" "right" 1 1018.135 1 "2015-06-16" "English" NA NA "female" "Pre" "PO" "Pred" "New"
"RYBLWpuTFMDI9nL2nYHnJk9Xo" 10 "1fillerpost2" "The_princess_will_tickle_the_teddy_bear_with_the_feather" "Can_you_tickle_the_teddy_bear_with_the_feather?" "left" "right" "posttest_filler" "2/7/2020" "10:27" "right" 0 2442.135 1 "2015-06-16" "English" NA NA "female" "Pre" "PO" "Pred" "New"
"slWtiHbVenncwuaBxxFtepsJ7" 1 "4fillerpost2" "The_prince_will_move_the_blanket_to_the_sofa" "Can_you_move_the_blanket_to_the_sofa?" "right" "left" "posttest_filler" "1/22/2020" "15:59" "right" 1 2380.135 1 "2015-11-19" "English" NA NA "female" "Post" "DO" "NonPred" "New"
"slWtiHbVenncwuaBxxFtepsJ7" 2 "3fillerpost2" "Dora_the_explorer_will_put_the_food_in_the_basket" "Can_you_put_the_food_in_the_basket?" "left" "right" "posttest_filler" "1/22/2020" "15:59" "left" 1 1371.135 1 "2015-11-19" "English" NA NA "female" "Post" "DO" "NonPred" "New"
"slWtiHbVenncwuaBxxFtepsJ7" 3 "4Pre2" "The_king_will_throw_the_turtle_a_squirrel" "Can_you_throw_the_turtle_the_squirrel?" "right" "left" "pretest" "1/22/2020" "15:59" "right" 1 1845.135 1 "2015-11-19" "English" NA NA "female" "Post" "DO" "NonPred" "New"
"slWtiHbVenncwuaBxxFtepsJ7" 4 "1FillerPre2" "Peppa_pig_will_bounce_the_ball_with_the_bat" "Can_you_bounce_the_ball_with_the_bat?" "right" "left" "pretest_filler" "1/22/2020" "15:59" "left" 0 1172.135 1 "2015-11-19" "English" NA NA "female" "Post" "DO" "NonPred" "New"
"slWtiHbVenncwuaBxxFtepsJ7" 5 "5Pre2" "The_queen_will_send_the_monkey_a_horse" "Can_you_send_the_monkey_the_horse?" "left" "right" "pretest" "1/22/2020" "15:59" "right" 0 1728.135 1 "2015-11-19" "English" NA NA "female" "Post" "DO" "NonPred" "New"
"slWtiHbVenncwuaBxxFtepsJ7" 6 "3Pre2" "Peppa_Pig_will_send_the_hamster_a_toy" "Can_you_send_the_hamster_the_toy?" "left" "right" "pretest" "1/22/2020" "15:59" "left" 1 1319.135 1 "2015-11-19" "English" NA NA "female" "Post" "DO" "NonPred" "New"
"slWtiHbVenncwuaBxxFtepsJ7" 7 "4FillerPre2" "The_king_will_poke_the_jelly_with_the_fork" "Can_you_poke_the_jelly_with_the_fork?" "right" "left" "pretest_filler" "1/22/2020" "15:59" "right" 1 2026.135 1 "2015-11-19" "English" NA NA "female" "Post" "DO" "NonPred" "New"
"slWtiHbVenncwuaBxxFtepsJ7" 8 "1Pre2" "The_boy_will_bring_the_giraffe_a_cake" "Can_you_bring_the_giraffe_the_cake?" "left" "right" "pretest" "1/22/2020" "15:59" "right" 0 1170.135 1 "2015-11-19" "English" NA NA "female" "Post" "DO" "NonPred" "New"
"slWtiHbVenncwuaBxxFtepsJ7" 9 "6Pre2" "Emily_elephant_will_bring_the_mouse_a_rabbit" "Can_you_bring_the_mouse_the_rabbit?" "left" "right" "pretest" "1/22/2020" "15:59" "left" 1 2362.135 1 "2015-11-19" "English" NA NA "female" "Post" "DO" "NonPred" "New"
"slWtiHbVenncwuaBxxFtepsJ7" 10 "2Pre2" "The_girl_will_throw_the_elephant_a_clock" "Can_you_throw_the_elephant_the_clock?" "right" "left" "pretest" "1/22/2020" "15:59" "left" 0 3598.135 1 "2015-11-19" "English" NA NA "female" "Post" "DO" "NonPred" "New"
"Sor48HrrluBlq87f1lvepQJiz" 1 "4fillerpost2" "The_prince_will_move_the_blanket_to_the_sofa" "Can_you_move_the_blanket_to_the_sofa?" "right" "left" "posttest_filler" "1/22/2020" "15:20" "right" 1 1407.135 1 "2015-05-16" "English" NA NA "female" "Post" "DO" "NonPred" "New"
"Sor48HrrluBlq87f1lvepQJiz" 2 "3fillerpost2" "Dora_the_explorer_will_put_the_food_in_the_basket" "Can_you_put_the_food_in_the_basket?" "left" "right" "posttest_filler" "1/22/2020" "15:20" "left" 1 1808.135 1 "2015-05-16" "English" NA NA "female" "Post" "DO" "NonPred" "New"
"Sor48HrrluBlq87f1lvepQJiz" 3 "2Pre2" "The_girl_will_throw_the_elephant_a_clock" "Can_you_throw_the_elephant_the_clock?" "left" "right" "pretest" "1/22/2020" "15:20" "left" 1 2626.135 1 "2015-05-16" "English" NA NA "female" "Post" "DO" "NonPred" "New"
"Sor48HrrluBlq87f1lvepQJiz" 4 "6Pre2" "Emily_elephant_will_bring_the_mouse_a_rabbit" "Can_you_bring_the_mouse_the_rabbit?" "right" "left" "pretest" "1/22/2020" "15:20" "left" 0 1271.135 1 "2015-05-16" "English" NA NA "female" "Post" "DO" "NonPred" "New"
"Sor48HrrluBlq87f1lvepQJiz" 5 "1Pre2" "The_boy_will_bring_the_giraffe_a_cake" "Can_you_bring_the_giraffe_the_cake?" "right" "left" "pretest" "1/22/2020" "15:20" "left" 0 1550.135 1 "2015-05-16" "English" NA NA "female" "Post" "DO" "NonPred" "New"
"Sor48HrrluBlq87f1lvepQJiz" 6 "4FillerPre2" "The_king_will_poke_the_jelly_with_the_fork" "Can_you_poke_the_jelly_with_the_fork?" "left" "right" "pretest_filler" "1/22/2020" "15:20" "left" 1 2926.135 1 "2015-05-16" "English" NA NA "female" "Post" "DO" "NonPred" "New"
"Sor48HrrluBlq87f1lvepQJiz" 7 "4Pre2" "The_king_will_throw_the_turtle_a_squirrel" "Can_you_throw_the_turtle_the_squirrel?" "left" "right" "pretest" "1/22/2020" "15:20" "left" 1 1105.135 1 "2015-05-16" "English" NA NA "female" "Post" "DO" "NonPred" "New"
"Sor48HrrluBlq87f1lvepQJiz" 8 "1FillerPre2" "Peppa_pig_will_bounce_the_ball_with_the_bat" "Can_you_bounce_the_ball_with_the_bat?" "left" "right" "pretest_filler" "1/22/2020" "15:20" "left" 1 1841.135 1 "2015-05-16" "English" NA NA "female" "Post" "DO" "NonPred" "New"
"Sor48HrrluBlq87f1lvepQJiz" 9 "5Pre2" "The_queen_will_send_the_monkey_a_horse" "Can_you_send_the_monkey_the_horse?" "right" "left" "pretest" "1/22/2020" "15:20" "right" 1 1940.135 1 "2015-05-16" "English" NA NA "female" "Post" "DO" "NonPred" "New"
"Sor48HrrluBlq87f1lvepQJiz" 10 "3Pre2" "Peppa_Pig_will_send_the_hamster_a_toy" "Can_you_send_the_hamster_the_toy?" "right" "left" "pretest" "1/22/2020" "15:20" "left" 0 1731.135 1 "2015-05-16" "English" NA NA "female" "Post" "DO" "NonPred" "New"
"T5wGyK5PDdqpHw7ErlK7E5IPy" 1 "4fillerpost2" "The_prince_will_move_the_blanket_to_the_sofa" "Can_you_move_the_blanket_to_the_sofa?" "right" "left" "posttest_filler" "2/3/2020" "15:12" "right" 1 1848.135 1 "2015-08-29" "English" NA NA "male" "Pre" "DO" "NonPred" "New"
"T5wGyK5PDdqpHw7ErlK7E5IPy" 2 "3fillerpost2" "Dora_the_explorer_will_put_the_food_in_the_basket" "Can_you_put_the_food_in_the_basket?" "left" "right" "posttest_filler" "2/3/2020" "15:12" "left" 1 2075.135 1 "2015-08-29" "English" NA NA "male" "Pre" "DO" "NonPred" "New"
"T5wGyK5PDdqpHw7ErlK7E5IPy" 3 "2fillerpost2" "Boots_will_clean_the_chair_with_the_sponge" "Can_you_clean_the_chair_with_the_sponge?" "left" "right" "posttest_filler" "2/3/2020" "15:12" "left" 1 3879.135 1 "2015-08-29" "English" NA NA "male" "Pre" "DO" "NonPred" "New"
"T5wGyK5PDdqpHw7ErlK7E5IPy" 4 "3post2" "Boots_will_throw_the_giraffe_a_balloon" "Can_you_throw_the_giraffe_the_balloon?" "right" "left" "posttest" "2/3/2020" "15:12" "left" 0 2123.135 1 "2015-08-29" "English" NA NA "male" "Pre" "DO" "NonPred" "New"
"T5wGyK5PDdqpHw7ErlK7E5IPy" 5 "1fillerpost2" "The_princess_will_tickle_the_teddy_bear_with_the_feather" "Can_you_tickle_the_teddy_bear_with_the_feather?" "left" "right" "posttest_filler" "2/3/2020" "15:12" "left" 1 54812.135 1 "2015-08-29" "English" NA NA "male" "Pre" "DO" "NonPred" "New"
"T5wGyK5PDdqpHw7ErlK7E5IPy" 6 "1Post2" "The_boy_will_send_the_tiger_a_present" "Can_you_send_the_tiger_the_present?" "right" "left" "posttest" "2/3/2020" "15:12" "left" 0 2370.135 1 "2015-08-29" "English" NA NA "male" "Pre" "DO" "NonPred" "New"
"T5wGyK5PDdqpHw7ErlK7E5IPy" 7 "5post2" "The_prince_will_bring_the_turtle_a_cat" "Can_you_bring_the_turtle_the_cat?" "left" "right" "posttest" "2/3/2020" "15:12" "right" 0 3020.135 1 "2015-08-29" "English" NA NA "male" "Pre" "DO" "NonPred" "New"
"T5wGyK5PDdqpHw7ErlK7E5IPy" 8 "4Post2" "The_princess_will_send_the_lion_a_crocodile" "Can_you_send_the_lion_the_crocodile?" "right" "left" "posttest" "2/3/2020" "15:12" "left" 0 3808.135 1 "2015-08-29" "English" NA NA "male" "Pre" "DO" "NonPred" "New"
"T5wGyK5PDdqpHw7ErlK7E5IPy" 9 "2post2" "The_girl_will_bring_the_horse_an_ice_cream" "Can_you_bring_the_horse_the_ice_cream?" "left" "right" "posttest" "2/3/2020" "15:12" "right" 0 2994.135 1 "2015-08-29" "English" NA NA "male" "Pre" "DO" "NonPred" "New"
"T5wGyK5PDdqpHw7ErlK7E5IPy" 10 "6post2" "Dora_the_explorer_will_throw_the_puppy_a_hamster" "Can_you_throw_puppy_the_hamster?" "right" "left" "posttest" "2/3/2020" "15:12" "left" 0 1757.135 1 "2015-08-29" "English" NA NA "male" "Pre" "DO" "NonPred" "New"
"TBM6iqBUcfwVRBEYSBdLqjV3I" 1 "4fillerpost2" "The_prince_will_move_the_blanket_to_the_sofa" "Can_you_move_the_blanket_to_the_sofa?" "right" "left" "posttest_filler" "2/7/2020" "9:44" "right" 1 1291.135 1 "2015-09-18" "English" NA NA "male" "Post" "DO" "NonPred" "New"
"TBM6iqBUcfwVRBEYSBdLqjV3I" 2 "3fillerpost2" "Dora_the_explorer_will_put_the_food_in_the_basket" "Can_you_put_the_food_in_the_basket?" "left" "right" "posttest_filler" "2/7/2020" "9:44" "left" 1 2420.135 1 "2015-09-18" "English" NA NA "male" "Post" "DO" "NonPred" "New"
"TBM6iqBUcfwVRBEYSBdLqjV3I" 3 "4FillerPre2" "The_king_will_poke_the_jelly_with_the_fork" "Can_you_poke_the_jelly_with_the_fork?" "right" "left" "pretest_filler" "2/7/2020" "9:44" "right" 1 2261.135 1 "2015-09-18" "English" NA NA "male" "Post" "DO" "NonPred" "New"
"TBM6iqBUcfwVRBEYSBdLqjV3I" 4 "4Pre2" "The_king_will_throw_the_turtle_a_squirrel" "Can_you_throw_the_turtle_the_squirrel?" "left" "right" "pretest" "2/7/2020" "9:44" "right" 0 2629.135 1 "2015-09-18" "English" NA NA "male" "Post" "DO" "NonPred" "New"
"TBM6iqBUcfwVRBEYSBdLqjV3I" 5 "6Pre2" "Emily_elephant_will_bring_the_mouse_a_rabbit" "Can_you_bring_the_mouse_the_rabbit?" "left" "right" "pretest" "2/7/2020" "9:44" "right" 0 3226.135 1 "2015-09-18" "English" NA NA "male" "Post" "DO" "NonPred" "New"
"TBM6iqBUcfwVRBEYSBdLqjV3I" 6 "1Pre2" "The_boy_will_bring_the_giraffe_a_cake" "Can_you_bring_the_giraffe_the_cake?" "right" "left" "pretest" "2/7/2020" "9:44" "right" 1 2057.135 1 "2015-09-18" "English" NA NA "male" "Post" "DO" "NonPred" "New"
"TBM6iqBUcfwVRBEYSBdLqjV3I" 7 "5Pre2" "The_queen_will_send_the_monkey_a_horse" "Can_you_send_the_monkey_the_horse?" "left" "right" "pretest" "2/7/2020" "9:44" "right" 0 1495.135 1 "2015-09-18" "English" NA NA "male" "Post" "DO" "NonPred" "New"
"TBM6iqBUcfwVRBEYSBdLqjV3I" 8 "2Pre2" "The_girl_will_throw_the_elephant_a_clock" "Can_you_throw_the_elephant_the_clock?" "left" "right" "pretest" "2/7/2020" "9:44" "right" 0 1070.135 1 "2015-09-18" "English" NA NA "male" "Post" "DO" "NonPred" "New"
"TBM6iqBUcfwVRBEYSBdLqjV3I" 9 "3Pre2" "Peppa_Pig_will_send_the_hamster_a_toy" "Can_you_send_the_hamster_the_toy?" "right" "left" "pretest" "2/7/2020" "9:44" "left" 0 2525.135 1 "2015-09-18" "English" NA NA "male" "Post" "DO" "NonPred" "New"
"TBM6iqBUcfwVRBEYSBdLqjV3I" 10 "1FillerPre2" "Peppa_pig_will_bounce_the_ball_with_the_bat" "Can_you_bounce_the_ball_with_the_bat?" "right" "left" "pretest_filler" "2/7/2020" "9:44" "right" 1 1359.135 1 "2015-09-18" "English" NA NA "male" "Post" "DO" "NonPred" "New"
"tqBkwqzcrSSCQPyHndjtDhpTd" 1 "4fillerpost2" "The_prince_will_move_the_blanket_to_the_sofa" "Can_you_move_the_blanket_to_the_sofa?" "right" "left" "posttest_filler" "11/1/2019" "14:42" "right" 1 1058.135 1 "2015-01-08" "English" NA NA "male" "Pre" "DO" "NonPred" "New"
"tqBkwqzcrSSCQPyHndjtDhpTd" 2 "3fillerpost2" "Dora_the_explorer_will_put_the_food_in_the_basket" "Can_you_put_the_food_in_the_basket?" "left" "right" "posttest_filler" "11/1/2019" "14:42" "left" 1 1435.135 1 "2015-01-08" "English" NA NA "male" "Pre" "DO" "NonPred" "New"
"tqBkwqzcrSSCQPyHndjtDhpTd" 3 "2post2" "The_girl_will_bring_the_horse_an_ice_cream" "Can_you_bring_the_horse_the_ice_cream?" "left" "right" "posttest" "11/1/2019" "14:42" "left" 1 1792.135 1 "2015-01-08" "English" NA NA "male" "Pre" "DO" "NonPred" "New"
"tqBkwqzcrSSCQPyHndjtDhpTd" 4 "1Post2" "The_boy_will_send_the_tiger_a_present" "Can_you_send_the_tiger_the_present?" "right" "left" "posttest" "11/1/2019" "14:42" "right" 1 1674.135 1 "2015-01-08" "English" NA NA "male" "Pre" "DO" "NonPred" "New"
"tqBkwqzcrSSCQPyHndjtDhpTd" 5 "2fillerpost2" "Boots_will_clean_the_chair_with_the_sponge" "Can_you_clean_the_chair_with_the_sponge?" "right" "left" "posttest_filler" "11/1/2019" "14:42" "right" 1 3127.135 1 "2015-01-08" "English" NA NA "male" "Pre" "DO" "NonPred" "New"
"tqBkwqzcrSSCQPyHndjtDhpTd" 6 "3post2" "Boots_will_throw_the_giraffe_a_balloon" "Can_you_throw_the_giraffe_the_balloon?" "left" "right" "posttest" "11/1/2019" "14:42" "left" 1 1291.135 2 "2015-01-08" "English" NA NA "male" "Pre" "DO" "NonPred" "New"
"tqBkwqzcrSSCQPyHndjtDhpTd" 7 "5post2" "The_prince_will_bring_the_turtle_a_cat" "Can_you_bring_the_turtle_the_cat?" "right" "left" "posttest" "11/1/2019" "14:42" "right" 1 2701.135 1 "2015-01-08" "English" NA NA "male" "Pre" "DO" "NonPred" "New"
"tqBkwqzcrSSCQPyHndjtDhpTd" 8 "6post2" "Dora_the_explorer_will_throw_the_puppy_a_hamster" "Can_you_throw_puppy_the_hamster?" "right" "left" "posttest" "11/1/2019" "14:42" "right" 1 1695.135 1 "2015-01-08" "English" NA NA "male" "Pre" "DO" "NonPred" "New"
"tqBkwqzcrSSCQPyHndjtDhpTd" 9 "1fillerpost2" "The_princess_will_tickle_the_teddy_bear_with_the_feather" "Can_you_tickle_the_teddy_bear_with_the_feather?" "left" "right" "posttest_filler" "11/1/2019" "14:42" "left" 1 3678.135 1 "2015-01-08" "English" NA NA "male" "Pre" "DO" "NonPred" "New"
"tqBkwqzcrSSCQPyHndjtDhpTd" 10 "4Post2" "The_princess_will_send_the_lion_a_crocodile" "Can_you_send_the_lion_the_crocodile?" "left" "right" "posttest" "11/1/2019" "14:42" "left" 1 1650.135 1 "2015-01-08" "English" NA NA "male" "Pre" "DO" "NonPred" "New"
"yV4GpnWcN1bMQbkx2oNCKJgXH" 1 "4fillerpost2" "The_prince_will_move_the_blanket_to_the_sofa" "Can_you_move_the_blanket_to_the_sofa?" "right" "left" "posttest_filler" "1/22/2020" "15:40" "right" 1 2220.135 1 "2015-12-23" "English" NA NA "female" "Pre" "DO" "NonPred" "New"
"yV4GpnWcN1bMQbkx2oNCKJgXH" 2 "3fillerpost2" "Dora_the_explorer_will_put_the_food_in_the_basket" "Can_you_put_the_food_in_the_basket?" "left" "right" "posttest_filler" "1/22/2020" "15:40" "left" 1 2470.135 1 "2015-12-23" "English" NA NA "female" "Pre" "DO" "NonPred" "New"
"yV4GpnWcN1bMQbkx2oNCKJgXH" 3 "2post2" "The_girl_will_bring_the_horse_an_ice_cream" "Can_you_bring_the_horse_the_ice_cream?" "right" "left" "posttest" "1/22/2020" "15:40" "right" 1 1962.135 1 "2015-12-23" "English" NA NA "female" "Pre" "DO" "NonPred" "New"
"yV4GpnWcN1bMQbkx2oNCKJgXH" 4 "3post2" "Boots_will_throw_the_giraffe_a_balloon" "Can_you_throw_the_giraffe_the_balloon?" "left" "right" "posttest" "1/22/2020" "15:40" "left" 1 2340.135 1 "2015-12-23" "English" NA NA "female" "Pre" "DO" "NonPred" "New"
"yV4GpnWcN1bMQbkx2oNCKJgXH" 5 "5post2" "The_prince_will_bring_the_turtle_a_cat" "Can_you_bring_the_turtle_the_cat?" "left" "right" "posttest" "1/22/2020" "15:40" "right" 0 2532.135 1 "2015-12-23" "English" NA NA "female" "Pre" "DO" "NonPred" "New"
"yV4GpnWcN1bMQbkx2oNCKJgXH" 6 "1Post2" "The_boy_will_send_the_tiger_a_present" "Can_you_send_the_tiger_the_present?" "right" "left" "posttest" "1/22/2020" "15:40" "left" 0 2534.135 1 "2015-12-23" "English" NA NA "female" "Pre" "DO" "NonPred" "New"
"yV4GpnWcN1bMQbkx2oNCKJgXH" 7 "1fillerpost2" "The_princess_will_tickle_the_teddy_bear_with_the_feather" "Can_you_tickle_the_teddy_bear_with_the_feather?" "left" "right" "posttest_filler" "1/22/2020" "15:40" "left" 1 4956.135 1 "2015-12-23" "English" NA NA "female" "Pre" "DO" "NonPred" "New"
"yV4GpnWcN1bMQbkx2oNCKJgXH" 8 "4Post2" "The_princess_will_send_the_lion_a_crocodile" "Can_you_send_the_lion_the_crocodile?" "left" "right" "posttest" "1/22/2020" "15:40" "right" 0 8023.135 1 "2015-12-23" "English" NA NA "female" "Pre" "DO" "NonPred" "New"
"yV4GpnWcN1bMQbkx2oNCKJgXH" 9 "6post2" "Dora_the_explorer_will_throw_the_puppy_a_hamster" "Can_you_throw_puppy_the_hamster?" "right" "left" "posttest" "1/22/2020" "15:40" "left" 0 4685.135 1 "2015-12-23" "English" NA NA "female" "Pre" "DO" "NonPred" "New"
"yV4GpnWcN1bMQbkx2oNCKJgXH" 10 "2fillerpost2" "Boots_will_clean_the_chair_with_the_sponge" "Can_you_clean_the_chair_with_the_sponge?" "right" "left" "posttest_filler" "1/22/2020" "15:40" "right" 1 4737.135 1 "2015-12-23" "English" NA NA "female" "Pre" "DO" "NonPred" "New"
