"subject_id" "trial_number" "trial_id" "target_sentence" "question" "target_side" "other_side" "trial_type" "date_stamp" "time_stamp" "side_chosen" "accuracy" "rt" "play_counter" "date_of_birth" "native_lang" "other_langs" "dev_info" "gender" "order" "sentence_type" "animacy" "version"
"1Y4e0MFuRxXrHrR9KWyzwUspQ" 1 "4fillerpost2" "The_prince_will_move_the_blanket_to_the_sofa" "Can_you_move_the_blanket_to_the_sofa?" "right" "left" "posttest_filler" "1/20/2022" "16:27" "right" 1 1919.135 1 "2022-01-20" "English " NA NA "male" "Pre" "PO" "Pred" "New-bis"
"1Y4e0MFuRxXrHrR9KWyzwUspQ" 2 "3fillerpost2" "Dora_the_explorer_will_put_the_food_in_the_basket" "Can_you_put_the_food_in_the_basket?" "left" "right" "posttest_filler" "1/20/2022" "16:27" "left" 1 3749.135 1 "2022-01-20" "English " NA NA "male" "Pre" "PO" "Pred" "New-bis"
"1Y4e0MFuRxXrHrR9KWyzwUspQ" 3 "5post2" "The_prince_will_bring_the_turtle_a_cat" "Can_you_bring_the_turtle_the_cat?" "left" "right" "posttest" "1/20/2022" "16:27" "left" 1 1302.135 1 "2022-01-20" "English " NA NA "male" "Pre" "PO" "Pred" "New-bis"
"1Y4e0MFuRxXrHrR9KWyzwUspQ" 4 "1Post2" "The_boy_will_send_the_tiger_a_present" "Can_you_send_the_tiger_the_present?" "right" "left" "posttest" "1/20/2022" "16:27" "right" 1 1584.135 1 "2022-01-20" "English " NA NA "male" "Pre" "PO" "Pred" "New-bis"
"1Y4e0MFuRxXrHrR9KWyzwUspQ" 5 "6post2" "Dora_the_explorer_will_throw_the_puppy_a_hamster" "Can_you_throw_puppy_the_hamster?" "right" "left" "posttest" "1/20/2022" "16:27" "right" 1 3311.135 1 "2022-01-20" "English " NA NA "male" "Pre" "PO" "Pred" "New-bis"
"1Y4e0MFuRxXrHrR9KWyzwUspQ" 6 "2fillerpost2" "Boots_will_clean_the_chair_with_the_sponge" "Can_you_clean_the_chair_with_the_sponge?" "left" "right" "posttest_filler" "1/20/2022" "16:27" "left" 1 1542.135 1 "2022-01-20" "English " NA NA "male" "Pre" "PO" "Pred" "New-bis"
"1Y4e0MFuRxXrHrR9KWyzwUspQ" 7 "4Post2" "The_princess_will_send_the_lion_a_crocodile" "Can_you_send_the_lion_the_crocodile?" "left" "right" "posttest" "1/20/2022" "16:27" "right" 0 2984.135 1 "2022-01-20" "English " NA NA "male" "Pre" "PO" "Pred" "New-bis"
"1Y4e0MFuRxXrHrR9KWyzwUspQ" 8 "3post2" "Boots_will_throw_the_giraffe_a_balloon" "Can_you_throw_the_giraffe_the_balloon?" "left" "right" "posttest" "1/20/2022" "16:27" "left" 1 3064.135 1 "2022-01-20" "English " NA NA "male" "Pre" "PO" "Pred" "New-bis"
"1Y4e0MFuRxXrHrR9KWyzwUspQ" 9 "2post2" "The_girl_will_bring_the_horse_an_ice_cream" "Can_you_bring_the_horse_the_ice_cream?" "right" "left" "posttest" "1/20/2022" "16:27" "right" 1 2090.135 1 "2022-01-20" "English " NA NA "male" "Pre" "PO" "Pred" "New-bis"
"1Y4e0MFuRxXrHrR9KWyzwUspQ" 10 "1fillerpost2" "The_princess_will_tickle_the_teddy_bear_with_the_feather" "Can_you_tickle_the_teddy_bear_with_the_feather?" "right" "left" "posttest_filler" "1/20/2022" "16:27" "right" 1 6603.135 1 "2022-01-20" "English " NA NA "male" "Pre" "PO" "Pred" "New-bis"
"9tgX9dSGT5G8o6baudKTMGquB" 1 "4fillerpost2" "The_prince_will_move_the_blanket_to_the_sofa" "Can_you_move_the_blanket_to_the_sofa?" "right" "left" "posttest_filler" "3/16/2022" "12:57" "right" 1 4802.135 1 "2022-03-16" "English " NA NA "female" "Post" "DO" "NonPred" "New-bis"
"9tgX9dSGT5G8o6baudKTMGquB" 2 "3fillerpost2" "Dora_the_explorer_will_put_the_food_in_the_basket" "Can_you_put_the_food_in_the_basket?" "left" "right" "posttest_filler" "3/16/2022" "12:57" "left" 1 2092.135 1 "2022-03-16" "English " NA NA "female" "Post" "DO" "NonPred" "New-bis"
"9tgX9dSGT5G8o6baudKTMGquB" 3 "6Pre2" "Emily_elephant_will_bring_the_mouse_a_rabbit" "Can_you_bring_the_mouse_the_rabbit?" "left" "right" "pretest" "3/16/2022" "12:57" "right" 0 1499.135 1 "2022-03-16" "English " NA NA "female" "Post" "DO" "NonPred" "New-bis"
"9tgX9dSGT5G8o6baudKTMGquB" 4 "2Pre2" "The_girl_will_throw_the_elephant_a_clock" "Can_you_throw_the_elephant_the_clock?" "left" "right" "pretest" "3/16/2022" "12:57" "right" 0 2633.135 1 "2022-03-16" "English " NA NA "female" "Post" "DO" "NonPred" "New-bis"
"9tgX9dSGT5G8o6baudKTMGquB" 5 "1Pre2" "The_boy_will_bring_the_giraffe_a_cake" "Can_you_bring_the_giraffe_the_cake?" "left" "right" "pretest" "3/16/2022" "12:57" "right" 0 2582.135 1 "2022-03-16" "English " NA NA "female" "Post" "DO" "NonPred" "New-bis"
"9tgX9dSGT5G8o6baudKTMGquB" 6 "1FillerPre2" "Peppa_pig_will_bounce_the_ball_with_the_bat" "Can_you_bounce_the_ball_with_the_bat?" "right" "left" "pretest_filler" "3/16/2022" "12:57" "right" 1 2171.135 1 "2022-03-16" "English " NA NA "female" "Post" "DO" "NonPred" "New-bis"
"9tgX9dSGT5G8o6baudKTMGquB" 7 "4Pre2" "The_king_will_throw_the_turtle_a_squirrel" "Can_you_throw_the_turtle_the_squirrel?" "left" "right" "pretest" "3/16/2022" "12:57" "right" 0 2667.135 1 "2022-03-16" "English " NA NA "female" "Post" "DO" "NonPred" "New-bis"
"9tgX9dSGT5G8o6baudKTMGquB" 8 "4FillerPre2" "The_king_will_poke_the_jelly_with_the_fork" "Can_you_poke_the_jelly_with_the_fork?" "right" "left" "pretest_filler" "3/16/2022" "12:57" "right" 1 2099.135 1 "2022-03-16" "English " NA NA "female" "Post" "DO" "NonPred" "New-bis"
"9tgX9dSGT5G8o6baudKTMGquB" 9 "5Pre2" "The_queen_will_send_the_monkey_a_horse" "Can_you_send_the_monkey_the_horse?" "right" "left" "pretest" "3/16/2022" "12:57" "left" 0 2183.135 1 "2022-03-16" "English " NA NA "female" "Post" "DO" "NonPred" "New-bis"
"9tgX9dSGT5G8o6baudKTMGquB" 10 "3Pre2" "Peppa_Pig_will_send_the_hamster_a_toy" "Can_you_send_the_hamster_the_toy?" "right" "left" "pretest" "3/16/2022" "12:57" "left" 0 2016.135 1 "2022-03-16" "English " NA NA "female" "Post" "DO" "NonPred" "New-bis"
"9wZUphPqxE4pSTMvu4dpMrJuT" 1 "4fillerpost2" "The_prince_will_move_the_blanket_to_the_sofa" "Can_you_move_the_blanket_to_the_sofa?" "right" "left" "posttest_filler" "1/20/2022" "16:08" "right" 1 3853.135 1 "2022-01-20" "English " NA NA "male" "Post" "DO" "NonPred" "New-bis"
"9wZUphPqxE4pSTMvu4dpMrJuT" 2 "3fillerpost2" "Dora_the_explorer_will_put_the_food_in_the_basket" "Can_you_put_the_food_in_the_basket?" "left" "right" "posttest_filler" "1/20/2022" "16:08" "left" 1 2650.135 1 "2022-01-20" "English " NA NA "male" "Post" "DO" "NonPred" "New-bis"
"9wZUphPqxE4pSTMvu4dpMrJuT" 3 "5Pre2" "The_queen_will_send_the_monkey_a_horse" "Can_you_send_the_monkey_the_horse?" "left" "right" "pretest" "1/20/2022" "16:08" "left" 1 3325.135 1 "2022-01-20" "English " NA NA "male" "Post" "DO" "NonPred" "New-bis"
"9wZUphPqxE4pSTMvu4dpMrJuT" 4 "4FillerPre2" "The_king_will_poke_the_jelly_with_the_fork" "Can_you_poke_the_jelly_with_the_fork?" "left" "right" "pretest_filler" "1/20/2022" "16:08" "left" 1 7539.135 1 "2022-01-20" "English " NA NA "male" "Post" "DO" "NonPred" "New-bis"
"9wZUphPqxE4pSTMvu4dpMrJuT" 5 "1FillerPre2" "Peppa_pig_will_bounce_the_ball_with_the_bat" "Can_you_bounce_the_ball_with_the_bat?" "right" "left" "pretest_filler" "1/20/2022" "16:08" "left" 0 2892.135 1 "2022-01-20" "English " NA NA "male" "Post" "DO" "NonPred" "New-bis"
"9wZUphPqxE4pSTMvu4dpMrJuT" 6 "4Pre2" "The_king_will_throw_the_turtle_a_squirrel" "Can_you_throw_the_turtle_the_squirrel?" "left" "right" "pretest" "1/20/2022" "16:08" "right" 0 3237.135 1 "2022-01-20" "English " NA NA "male" "Post" "DO" "NonPred" "New-bis"
"9wZUphPqxE4pSTMvu4dpMrJuT" 7 "3Pre2" "Peppa_Pig_will_send_the_hamster_a_toy" "Can_you_send_the_hamster_the_toy?" "right" "left" "pretest" "1/20/2022" "16:08" "right" 1 3780.135 1 "2022-01-20" "English " NA NA "male" "Post" "DO" "NonPred" "New-bis"
"9wZUphPqxE4pSTMvu4dpMrJuT" 8 "1Pre2" "The_boy_will_bring_the_giraffe_a_cake" "Can_you_bring_the_giraffe_the_cake?" "right" "left" "pretest" "1/20/2022" "16:08" "right" 1 3402.135 1 "2022-01-20" "English " NA NA "male" "Post" "DO" "NonPred" "New-bis"
"9wZUphPqxE4pSTMvu4dpMrJuT" 9 "2Pre2" "The_girl_will_throw_the_elephant_a_clock" "Can_you_throw_the_elephant_the_clock?" "left" "right" "pretest" "1/20/2022" "16:08" "left" 1 4272.135 1 "2022-01-20" "English " NA NA "male" "Post" "DO" "NonPred" "New-bis"
"9wZUphPqxE4pSTMvu4dpMrJuT" 10 "6Pre2" "Emily_elephant_will_bring_the_mouse_a_rabbit" "Can_you_bring_the_mouse_the_rabbit?" "right" "left" "pretest" "1/20/2022" "16:08" "right" 1 5229.135 1 "2022-01-20" "English " NA NA "male" "Post" "DO" "NonPred" "New-bis"
"AoFwm7N8UlHOBXdROEhXuEzNe" 1 "4fillerpost2" "The_prince_will_move_the_blanket_to_the_sofa" "Can_you_move_the_blanket_to_the_sofa?" "right" "left" "posttest_filler" "3/30/2022" "17:02" "right" 1 1582.135 1 "2022-03-20" "English" NA NA "female" "Pre" "PO" "Pred" "New-bis"
"AoFwm7N8UlHOBXdROEhXuEzNe" 2 "3fillerpost2" "Dora_the_explorer_will_put_the_food_in_the_basket" "Can_you_put_the_food_in_the_basket?" "left" "right" "posttest_filler" "3/30/2022" "17:02" "left" 1 2857.135 1 "2022-03-20" "English" NA NA "female" "Pre" "PO" "Pred" "New-bis"
"AoFwm7N8UlHOBXdROEhXuEzNe" 3 "5post2" "The_prince_will_bring_the_turtle_a_cat" "Can_you_bring_the_turtle_the_cat?" "left" "right" "posttest" "3/30/2022" "17:02" "right" 0 901.135 1 "2022-03-20" "English" NA NA "female" "Pre" "PO" "Pred" "New-bis"
"AoFwm7N8UlHOBXdROEhXuEzNe" 4 "4Post2" "The_princess_will_send_the_lion_a_crocodile" "Can_you_send_the_lion_the_crocodile?" "right" "left" "posttest" "3/30/2022" "17:02" "left" 0 2017.135 1 "2022-03-20" "English" NA NA "female" "Pre" "PO" "Pred" "New-bis"
"AoFwm7N8UlHOBXdROEhXuEzNe" 5 "2post2" "The_girl_will_bring_the_horse_an_ice_cream" "Can_you_bring_the_horse_the_ice_cream?" "right" "left" "posttest" "3/30/2022" "17:02" "left" 0 4767.135 1 "2022-03-20" "English" NA NA "female" "Pre" "PO" "Pred" "New-bis"
"AoFwm7N8UlHOBXdROEhXuEzNe" 6 "1fillerpost2" "The_princess_will_tickle_the_teddy_bear_with_the_feather" "Can_you_tickle_the_teddy_bear_with_the_feather?" "left" "right" "posttest_filler" "3/30/2022" "17:02" "left" 1 847.135 1 "2022-03-20" "English" NA NA "female" "Pre" "PO" "Pred" "New-bis"
"AoFwm7N8UlHOBXdROEhXuEzNe" 7 "1Post2" "The_boy_will_send_the_tiger_a_present" "Can_you_send_the_tiger_the_present?" "right" "left" "posttest" "3/30/2022" "17:02" "left" 0 1933.135 1 "2022-03-20" "English" NA NA "female" "Pre" "PO" "Pred" "New-bis"
"AoFwm7N8UlHOBXdROEhXuEzNe" 8 "3post2" "Boots_will_throw_the_giraffe_a_balloon" "Can_you_throw_the_giraffe_the_balloon?" "left" "right" "posttest" "3/30/2022" "17:02" "left" 1 399.135 1 "2022-03-20" "English" NA NA "female" "Pre" "PO" "Pred" "New-bis"
"AoFwm7N8UlHOBXdROEhXuEzNe" 9 "2fillerpost2" "Boots_will_clean_the_chair_with_the_sponge" "Can_you_clean_the_chair_with_the_sponge?" "left" "right" "posttest_filler" "3/30/2022" "17:02" "left" 1 1385.135 1 "2022-03-20" "English" NA NA "female" "Pre" "PO" "Pred" "New-bis"
"AoFwm7N8UlHOBXdROEhXuEzNe" 10 "6post2" "Dora_the_explorer_will_throw_the_puppy_a_hamster" "Can_you_throw_puppy_the_hamster?" "right" "left" "posttest" "3/30/2022" "17:02" "left" 0 1184.135 1 "2022-03-20" "English" NA NA "female" "Pre" "PO" "Pred" "New-bis"
"BdGSOufSBwUolVRT3rOkCuppF" 1 "4fillerpost2" "The_prince_will_move_the_blanket_to_the_sofa" "Can_you_move_the_blanket_to_the_sofa?" "right" "left" "posttest_filler" "8/28/2022" "13:10" "right" 1 2298.135 1 "2018-06-28" "English" NA NA "female" "Pre" "DO" "NonPred" "New-bis"
"BdGSOufSBwUolVRT3rOkCuppF" 2 "3fillerpost2" "Dora_the_explorer_will_put_the_food_in_the_basket" "Can_you_put_the_food_in_the_basket?" "left" "right" "posttest_filler" "8/28/2022" "13:10" "left" 1 4617.135 1 "2018-06-28" "English" NA NA "female" "Pre" "DO" "NonPred" "New-bis"
"BdGSOufSBwUolVRT3rOkCuppF" 3 "1fillerpost2" "The_princess_will_tickle_the_teddy_bear_with_the_feather" "Can_you_tickle_the_teddy_bear_with_the_feather?" "right" "left" "posttest_filler" "8/28/2022" "13:10" "right" 1 4355.135 1 "2018-06-28" "English" NA NA "female" "Pre" "DO" "NonPred" "New-bis"
"BdGSOufSBwUolVRT3rOkCuppF" 4 "1Post2" "The_boy_will_send_the_tiger_a_present" "Can_you_send_the_tiger_the_present?" "left" "right" "posttest" "8/28/2022" "13:10" "left" 1 6278.135 1 "2018-06-28" "English" NA NA "female" "Pre" "DO" "NonPred" "New-bis"
"BdGSOufSBwUolVRT3rOkCuppF" 5 "6post2" "Dora_the_explorer_will_throw_the_puppy_a_hamster" "Can_you_throw_puppy_the_hamster?" "right" "left" "posttest" "8/28/2022" "13:10" "right" 1 1243.135 1 "2018-06-28" "English" NA NA "female" "Pre" "DO" "NonPred" "New-bis"
"BdGSOufSBwUolVRT3rOkCuppF" 6 "2fillerpost2" "Boots_will_clean_the_chair_with_the_sponge" "Can_you_clean_the_chair_with_the_sponge?" "left" "right" "posttest_filler" "8/28/2022" "13:10" "left" 1 2892.135 1 "2018-06-28" "English" NA NA "female" "Pre" "DO" "NonPred" "New-bis"
"BdGSOufSBwUolVRT3rOkCuppF" 7 "5post2" "The_prince_will_bring_the_turtle_a_cat" "Can_you_bring_the_turtle_the_cat?" "left" "right" "posttest" "8/28/2022" "13:10" "left" 1 1238.135 1 "2018-06-28" "English" NA NA "female" "Pre" "DO" "NonPred" "New-bis"
"BdGSOufSBwUolVRT3rOkCuppF" 8 "4Post2" "The_princess_will_send_the_lion_a_crocodile" "Can_you_send_the_lion_the_crocodile?" "left" "right" "posttest" "8/28/2022" "13:10" "left" 1 2069.135 1 "2018-06-28" "English" NA NA "female" "Pre" "DO" "NonPred" "New-bis"
"BdGSOufSBwUolVRT3rOkCuppF" 9 "3post2" "Boots_will_throw_the_giraffe_a_balloon" "Can_you_throw_the_giraffe_the_balloon?" "right" "left" "posttest" "8/28/2022" "13:10" "right" 1 4275.135 1 "2018-06-28" "English" NA NA "female" "Pre" "DO" "NonPred" "New-bis"
"BdGSOufSBwUolVRT3rOkCuppF" 10 "2post2" "The_girl_will_bring_the_horse_an_ice_cream" "Can_you_bring_the_horse_the_ice_cream?" "right" "left" "posttest" "8/28/2022" "13:10" "right" 1 2141.135 1 "2018-06-28" "English" NA NA "female" "Pre" "DO" "NonPred" "New-bis"
"C7NdE4AywSmrlfVdT853HysYt" 1 "4fillerpost2" "The_prince_will_move_the_blanket_to_the_sofa" "Can_you_move_the_blanket_to_the_sofa?" "right" "left" "posttest_filler" "2/4/2022" "15:36" "right" 1 2423.135 1 "2017-05-09" "English" NA NA "male" "Post" "PO" "NonPred" "New-bis"
"C7NdE4AywSmrlfVdT853HysYt" 2 "3fillerpost2" "Dora_the_explorer_will_put_the_food_in_the_basket" "Can_you_put_the_food_in_the_basket?" "left" "right" "posttest_filler" "2/4/2022" "15:36" "left" 1 2130.135 1 "2017-05-09" "English" NA NA "male" "Post" "PO" "NonPred" "New-bis"
"C7NdE4AywSmrlfVdT853HysYt" 3 "4Pre2" "The_king_will_throw_the_turtle_a_squirrel" "Can_you_throw_the_turtle_the_squirrel?" "left" "right" "pretest" "2/4/2022" "15:36" "right" 0 2438.135 1 "2017-05-09" "English" NA NA "male" "Post" "PO" "NonPred" "New-bis"
"C7NdE4AywSmrlfVdT853HysYt" 4 "4FillerPre2" "The_king_will_poke_the_jelly_with_the_fork" "Can_you_poke_the_jelly_with_the_fork?" "right" "left" "pretest_filler" "2/4/2022" "15:36" "right" 1 2905.135 1 "2017-05-09" "English" NA NA "male" "Post" "PO" "NonPred" "New-bis"
"C7NdE4AywSmrlfVdT853HysYt" 5 "1FillerPre2" "Peppa_pig_will_bounce_the_ball_with_the_bat" "Can_you_bounce_the_ball_with_the_bat?" "right" "left" "pretest_filler" "2/4/2022" "15:36" "left" 0 6531.135 1 "2017-05-09" "English" NA NA "male" "Post" "PO" "NonPred" "New-bis"
"C7NdE4AywSmrlfVdT853HysYt" 6 "3Pre2" "Peppa_Pig_will_send_the_hamster_a_toy" "Can_you_send_the_hamster_the_toy?" "right" "left" "pretest" "2/4/2022" "15:36" "left" 0 2676.135 1 "2017-05-09" "English" NA NA "male" "Post" "PO" "NonPred" "New-bis"
"C7NdE4AywSmrlfVdT853HysYt" 7 "5Pre2" "The_queen_will_send_the_monkey_a_horse" "Can_you_send_the_monkey_the_horse?" "left" "right" "pretest" "2/4/2022" "15:36" "right" 0 2928.135 1 "2017-05-09" "English" NA NA "male" "Post" "PO" "NonPred" "New-bis"
"C7NdE4AywSmrlfVdT853HysYt" 8 "2Pre2" "The_girl_will_throw_the_elephant_a_clock" "Can_you_throw_the_elephant_the_clock?" "right" "left" "pretest" "2/4/2022" "15:36" "left" 0 4175.135 1 "2017-05-09" "English" NA NA "male" "Post" "PO" "NonPred" "New-bis"
"C7NdE4AywSmrlfVdT853HysYt" 9 "1Pre2" "The_boy_will_bring_the_giraffe_a_cake" "Can_you_bring_the_giraffe_the_cake?" "left" "right" "pretest" "2/4/2022" "15:36" "right" 0 3875.135 1 "2017-05-09" "English" NA NA "male" "Post" "PO" "NonPred" "New-bis"
"C7NdE4AywSmrlfVdT853HysYt" 10 "6Pre2" "Emily_elephant_will_bring_the_mouse_a_rabbit" "Can_you_bring_the_mouse_the_rabbit?" "left" "right" "pretest" "2/4/2022" "15:36" "right" 0 2877.135 1 "2017-05-09" "English" NA NA "male" "Post" "PO" "NonPred" "New-bis"
"d1ktpSfErH4wddABU1quVIeib" 1 "4fillerpost2" "The_prince_will_move_the_blanket_to_the_sofa" "Can_you_move_the_blanket_to_the_sofa?" "right" "left" "posttest_filler" "11/30/2021" "16:13" "right" 1 1862.135 1 "2016-12-18" "English" "Welsh" NA "male" "Pre" "PO" "NonPred" "New-bis"
"d1ktpSfErH4wddABU1quVIeib" 2 "3fillerpost2" "Dora_the_explorer_will_put_the_food_in_the_basket" "Can_you_put_the_food_in_the_basket?" "left" "right" "posttest_filler" "11/30/2021" "16:13" "left" 1 1386.135 1 "2016-12-18" "English" "Welsh" NA "male" "Pre" "PO" "NonPred" "New-bis"
"d1ktpSfErH4wddABU1quVIeib" 3 "1fillerpost2" "The_princess_will_tickle_the_teddy_bear_with_the_feather" "Can_you_tickle_the_teddy_bear_with_the_feather?" "left" "right" "posttest_filler" "11/30/2021" "16:13" "left" 1 2931.135 1 "2016-12-18" "English" "Welsh" NA "male" "Pre" "PO" "NonPred" "New-bis"
"d1ktpSfErH4wddABU1quVIeib" 4 "3post2" "Boots_will_throw_the_giraffe_a_balloon" "Can_you_throw_the_giraffe_the_balloon?" "right" "left" "posttest" "11/30/2021" "16:13" "left" 0 1018.135 1 "2016-12-18" "English" "Welsh" NA "male" "Pre" "PO" "NonPred" "New-bis"
"d1ktpSfErH4wddABU1quVIeib" 5 "2post2" "The_girl_will_bring_the_horse_an_ice_cream" "Can_you_bring_the_horse_the_ice_cream?" "left" "right" "posttest" "11/30/2021" "16:13" "left" 1 1646.135 1 "2016-12-18" "English" "Welsh" NA "male" "Pre" "PO" "NonPred" "New-bis"
"d1ktpSfErH4wddABU1quVIeib" 6 "6post2" "Dora_the_explorer_will_throw_the_puppy_a_hamster" "Can_you_throw_puppy_the_hamster?" "left" "right" "posttest" "11/30/2021" "16:13" "right" 0 2856.135 1 "2016-12-18" "English" "Welsh" NA "male" "Pre" "PO" "NonPred" "New-bis"
"d1ktpSfErH4wddABU1quVIeib" 7 "1Post2" "The_boy_will_send_the_tiger_a_present" "Can_you_send_the_tiger_the_present?" "right" "left" "posttest" "11/30/2021" "16:13" "left" 0 4226.135 1 "2016-12-18" "English" "Welsh" NA "male" "Pre" "PO" "NonPred" "New-bis"
"d1ktpSfErH4wddABU1quVIeib" 8 "5post2" "The_prince_will_bring_the_turtle_a_cat" "Can_you_bring_the_turtle_the_cat?" "left" "right" "posttest" "11/30/2021" "16:13" "left" 1 3990.135 1 "2016-12-18" "English" "Welsh" NA "male" "Pre" "PO" "NonPred" "New-bis"
"d1ktpSfErH4wddABU1quVIeib" 9 "4Post2" "The_princess_will_send_the_lion_a_crocodile" "Can_you_send_the_lion_the_crocodile?" "right" "left" "posttest" "11/30/2021" "16:13" "left" 0 4867.135 1 "2016-12-18" "English" "Welsh" NA "male" "Pre" "PO" "NonPred" "New-bis"
"d1ktpSfErH4wddABU1quVIeib" 10 "2fillerpost2" "Boots_will_clean_the_chair_with_the_sponge" "Can_you_clean_the_chair_with_the_sponge?" "right" "left" "posttest_filler" "11/30/2021" "16:13" "right" 1 5906.135 1 "2016-12-18" "English" "Welsh" NA "male" "Pre" "PO" "NonPred" "New-bis"
"EHn84mcF7lpjQ0uR89Bzd0cEQ" 1 "4fillerpost2" "The_prince_will_move_the_blanket_to_the_sofa" "Can_you_move_the_blanket_to_the_sofa?" "right" "left" "posttest_filler" "3/1/2022" "11:59" "left" 0 3743.135 1 "2017-11-17" "English" NA NA "male" "Pre" "DO" "NonPred" "New-bis"
"EHn84mcF7lpjQ0uR89Bzd0cEQ" 2 "3fillerpost2" "Dora_the_explorer_will_put_the_food_in_the_basket" "Can_you_put_the_food_in_the_basket?" "left" "right" "posttest_filler" "3/1/2022" "11:59" "right" 0 2031.135 1 "2017-11-17" "English" NA NA "male" "Pre" "DO" "NonPred" "New-bis"
"EHn84mcF7lpjQ0uR89Bzd0cEQ" 3 "2fillerpost2" "Boots_will_clean_the_chair_with_the_sponge" "Can_you_clean_the_chair_with_the_sponge?" "right" "left" "posttest_filler" "3/1/2022" "11:59" "left" 0 2052.135 1 "2017-11-17" "English" NA NA "male" "Pre" "DO" "NonPred" "New-bis"
"EHn84mcF7lpjQ0uR89Bzd0cEQ" 4 "1Post2" "The_boy_will_send_the_tiger_a_present" "Can_you_send_the_tiger_the_present?" "left" "right" "posttest" "3/1/2022" "11:59" "right" 0 2615.135 1 "2017-11-17" "English" NA NA "male" "Pre" "DO" "NonPred" "New-bis"
"EHn84mcF7lpjQ0uR89Bzd0cEQ" 5 "3post2" "Boots_will_throw_the_giraffe_a_balloon" "Can_you_throw_the_giraffe_the_balloon?" "right" "left" "posttest" "3/1/2022" "11:59" "left" 0 2668.135 1 "2017-11-17" "English" NA NA "male" "Pre" "DO" "NonPred" "New-bis"
"EHn84mcF7lpjQ0uR89Bzd0cEQ" 6 "4Post2" "The_princess_will_send_the_lion_a_crocodile" "Can_you_send_the_lion_the_crocodile?" "left" "right" "posttest" "3/1/2022" "11:59" "right" 0 3933.135 1 "2017-11-17" "English" NA NA "male" "Pre" "DO" "NonPred" "New-bis"
"EHn84mcF7lpjQ0uR89Bzd0cEQ" 7 "2post2" "The_girl_will_bring_the_horse_an_ice_cream" "Can_you_bring_the_horse_the_ice_cream?" "left" "right" "posttest" "3/1/2022" "11:59" "right" 0 8267.135 1 "2017-11-17" "English" NA NA "male" "Pre" "DO" "NonPred" "New-bis"
"EHn84mcF7lpjQ0uR89Bzd0cEQ" 8 "6post2" "Dora_the_explorer_will_throw_the_puppy_a_hamster" "Can_you_throw_puppy_the_hamster?" "right" "left" "posttest" "3/1/2022" "11:59" "left" 0 4201.135 1 "2017-11-17" "English" NA NA "male" "Pre" "DO" "NonPred" "New-bis"
"EHn84mcF7lpjQ0uR89Bzd0cEQ" 9 "1fillerpost2" "The_princess_will_tickle_the_teddy_bear_with_the_feather" "Can_you_tickle_the_teddy_bear_with_the_feather?" "right" "left" "posttest_filler" "3/1/2022" "11:59" "left" 0 2866.135 1 "2017-11-17" "English" NA NA "male" "Pre" "DO" "NonPred" "New-bis"
"EHn84mcF7lpjQ0uR89Bzd0cEQ" 10 "5post2" "The_prince_will_bring_the_turtle_a_cat" "Can_you_bring_the_turtle_the_cat?" "left" "right" "posttest" "3/1/2022" "11:59" "right" 0 4116.135 1 "2017-11-17" "English" NA NA "male" "Pre" "DO" "NonPred" "New-bis"
"FKOWco7JzGGNUisILwXUWCJMZ" 1 "4fillerpost2" "The_prince_will_move_the_blanket_to_the_sofa" "Can_you_move_the_blanket_to_the_sofa?" "right" "left" "posttest_filler" "8/24/2022" "11:10" "right" 1 1445.135 1 NA "English " "Na" "Na" "female" "Post" "DO" "NonPred" "New-bis"
"FKOWco7JzGGNUisILwXUWCJMZ" 2 "3fillerpost2" "Dora_the_explorer_will_put_the_food_in_the_basket" "Can_you_put_the_food_in_the_basket?" "left" "right" "posttest_filler" "8/24/2022" "11:10" "left" 1 1519.135 1 NA "English " "Na" "Na" "female" "Post" "DO" "NonPred" "New-bis"
"FKOWco7JzGGNUisILwXUWCJMZ" 3 "6Pre2" "Emily_elephant_will_bring_the_mouse_a_rabbit" "Can_you_bring_the_mouse_the_rabbit?" "right" "left" "pretest" "8/24/2022" "11:10" "left" 0 812.135 1 NA "English " "Na" "Na" "female" "Post" "DO" "NonPred" "New-bis"
"FKOWco7JzGGNUisILwXUWCJMZ" 4 "4Pre2" "The_king_will_throw_the_turtle_a_squirrel" "Can_you_throw_the_turtle_the_squirrel?" "right" "left" "pretest" "8/24/2022" "11:10" "left" 0 1090.135 1 NA "English " "Na" "Na" "female" "Post" "DO" "NonPred" "New-bis"
"FKOWco7JzGGNUisILwXUWCJMZ" 5 "1FillerPre2" "Peppa_pig_will_bounce_the_ball_with_the_bat" "Can_you_bounce_the_ball_with_the_bat?" "right" "left" "pretest_filler" "8/24/2022" "11:10" "left" 0 1923.135 1 NA "English " "Na" "Na" "female" "Post" "DO" "NonPred" "New-bis"
"FKOWco7JzGGNUisILwXUWCJMZ" 6 "3Pre2" "Peppa_Pig_will_send_the_hamster_a_toy" "Can_you_send_the_hamster_the_toy?" "right" "left" "pretest" "8/24/2022" "11:10" "left" 0 727.135 1 NA "English " "Na" "Na" "female" "Post" "DO" "NonPred" "New-bis"
"FKOWco7JzGGNUisILwXUWCJMZ" 7 "2Pre2" "The_girl_will_throw_the_elephant_a_clock" "Can_you_throw_the_elephant_the_clock?" "left" "right" "pretest" "8/24/2022" "11:10" "right" 0 1636.135 1 NA "English " "Na" "Na" "female" "Post" "DO" "NonPred" "New-bis"
"FKOWco7JzGGNUisILwXUWCJMZ" 8 "4FillerPre2" "The_king_will_poke_the_jelly_with_the_fork" "Can_you_poke_the_jelly_with_the_fork?" "left" "right" "pretest_filler" "8/24/2022" "11:10" "left" 1 2594.135 1 NA "English " "Na" "Na" "female" "Post" "DO" "NonPred" "New-bis"
"FKOWco7JzGGNUisILwXUWCJMZ" 9 "5Pre2" "The_queen_will_send_the_monkey_a_horse" "Can_you_send_the_monkey_the_horse?" "left" "right" "pretest" "8/24/2022" "11:10" "right" 0 1411.135 1 NA "English " "Na" "Na" "female" "Post" "DO" "NonPred" "New-bis"
"FKOWco7JzGGNUisILwXUWCJMZ" 10 "1Pre2" "The_boy_will_bring_the_giraffe_a_cake" "Can_you_bring_the_giraffe_the_cake?" "left" "right" "pretest" "8/24/2022" "11:10" "right" 0 1426.135 1 NA "English " "Na" "Na" "female" "Post" "DO" "NonPred" "New-bis"
"HvX7yFi9aEQokrzpGQf6BLTFO" 1 "4fillerpost2" "The_prince_will_move_the_blanket_to_the_sofa" "Can_you_move_the_blanket_to_the_sofa?" "right" "left" "posttest_filler" "12/23/2021" "14:31" "right" 1 2526.135 1 "2017-01-30" "English" NA NA "male" "Pre" "DO" "Pred" "New-bis"
"HvX7yFi9aEQokrzpGQf6BLTFO" 2 "3fillerpost2" "Dora_the_explorer_will_put_the_food_in_the_basket" "Can_you_put_the_food_in_the_basket?" "left" "right" "posttest_filler" "12/23/2021" "14:31" "left" 1 1618.135 1 "2017-01-30" "English" NA NA "male" "Pre" "DO" "Pred" "New-bis"
"HvX7yFi9aEQokrzpGQf6BLTFO" 3 "3post2" "Boots_will_throw_the_giraffe_a_balloon" "Can_you_throw_the_giraffe_the_balloon?" "right" "left" "posttest" "12/23/2021" "14:31" "right" 1 2148.135 1 "2017-01-30" "English" NA NA "male" "Pre" "DO" "Pred" "New-bis"
"HvX7yFi9aEQokrzpGQf6BLTFO" 4 "1Post2" "The_boy_will_send_the_tiger_a_present" "Can_you_send_the_tiger_the_present?" "left" "right" "posttest" "12/23/2021" "14:31" "left" 1 2407.135 1 "2017-01-30" "English" NA NA "male" "Pre" "DO" "Pred" "New-bis"
"HvX7yFi9aEQokrzpGQf6BLTFO" 5 "5post2" "The_prince_will_bring_the_turtle_a_cat" "Can_you_bring_the_turtle_the_cat?" "right" "left" "posttest" "12/23/2021" "14:31" "right" 1 4170.135 1 "2017-01-30" "English" NA NA "male" "Pre" "DO" "Pred" "New-bis"
"HvX7yFi9aEQokrzpGQf6BLTFO" 6 "6post2" "Dora_the_explorer_will_throw_the_puppy_a_hamster" "Can_you_throw_puppy_the_hamster?" "right" "left" "posttest" "12/23/2021" "14:31" "left" 0 3370.135 1 "2017-01-30" "English" NA NA "male" "Pre" "DO" "Pred" "New-bis"
"HvX7yFi9aEQokrzpGQf6BLTFO" 7 "2fillerpost2" "Boots_will_clean_the_chair_with_the_sponge" "Can_you_clean_the_chair_with_the_sponge?" "right" "left" "posttest_filler" "12/23/2021" "14:31" "right" 1 2086.135 1 "2017-01-30" "English" NA NA "male" "Pre" "DO" "Pred" "New-bis"
"HvX7yFi9aEQokrzpGQf6BLTFO" 8 "1fillerpost2" "The_princess_will_tickle_the_teddy_bear_with_the_feather" "Can_you_tickle_the_teddy_bear_with_the_feather?" "left" "right" "posttest_filler" "12/23/2021" "14:31" "left" 1 2821.135 1 "2017-01-30" "English" NA NA "male" "Pre" "DO" "Pred" "New-bis"
"HvX7yFi9aEQokrzpGQf6BLTFO" 9 "2post2" "The_girl_will_bring_the_horse_an_ice_cream" "Can_you_bring_the_horse_the_ice_cream?" "left" "right" "posttest" "12/23/2021" "14:31" "left" 1 2825.135 1 "2017-01-30" "English" NA NA "male" "Pre" "DO" "Pred" "New-bis"
"HvX7yFi9aEQokrzpGQf6BLTFO" 10 "4Post2" "The_princess_will_send_the_lion_a_crocodile" "Can_you_send_the_lion_the_crocodile?" "left" "right" "posttest" "12/23/2021" "14:31" "left" 1 3100.135 1 "2017-01-30" "English" NA NA "male" "Pre" "DO" "Pred" "New-bis"
"IH45juG3hcxSu3Lbax7Km1Erd" 1 "4fillerpost2" "The_prince_will_move_the_blanket_to_the_sofa" "Can_you_move_the_blanket_to_the_sofa?" "right" "left" "posttest_filler" "7/28/2022" "15:36" "right" 1 1430.135 1 "2018-07-18" "English " "Na" "Na" "male" "Pre" "DO" "Pred" "New-bis"
"IH45juG3hcxSu3Lbax7Km1Erd" 2 "3fillerpost2" "Dora_the_explorer_will_put_the_food_in_the_basket" "Can_you_put_the_food_in_the_basket?" "left" "right" "posttest_filler" "7/28/2022" "15:36" "left" 1 2572.135 1 "2018-07-18" "English " "Na" "Na" "male" "Pre" "DO" "Pred" "New-bis"
"IH45juG3hcxSu3Lbax7Km1Erd" 3 "2fillerpost2" "Boots_will_clean_the_chair_with_the_sponge" "Can_you_clean_the_chair_with_the_sponge?" "left" "right" "posttest_filler" "7/28/2022" "15:36" "left" 1 1763.135 1 "2018-07-18" "English " "Na" "Na" "male" "Pre" "DO" "Pred" "New-bis"
"IH45juG3hcxSu3Lbax7Km1Erd" 4 "4Post2" "The_princess_will_send_the_lion_a_crocodile" "Can_you_send_the_lion_the_crocodile?" "right" "left" "posttest" "7/28/2022" "15:36" "left" 0 2086.135 1 "2018-07-18" "English " "Na" "Na" "male" "Pre" "DO" "Pred" "New-bis"
"IH45juG3hcxSu3Lbax7Km1Erd" 5 "3post2" "Boots_will_throw_the_giraffe_a_balloon" "Can_you_throw_the_giraffe_the_balloon?" "right" "left" "posttest" "7/28/2022" "15:36" "left" 0 2123.135 1 "2018-07-18" "English " "Na" "Na" "male" "Pre" "DO" "Pred" "New-bis"
"IH45juG3hcxSu3Lbax7Km1Erd" 6 "1Post2" "The_boy_will_send_the_tiger_a_present" "Can_you_send_the_tiger_the_present?" "right" "left" "posttest" "7/28/2022" "15:36" "right" 1 1999.135 1 "2018-07-18" "English " "Na" "Na" "male" "Pre" "DO" "Pred" "New-bis"
"IH45juG3hcxSu3Lbax7Km1Erd" 7 "1fillerpost2" "The_princess_will_tickle_the_teddy_bear_with_the_feather" "Can_you_tickle_the_teddy_bear_with_the_feather?" "left" "right" "posttest_filler" "7/28/2022" "15:36" "left" 1 5049.135 1 "2018-07-18" "English " "Na" "Na" "male" "Pre" "DO" "Pred" "New-bis"
"IH45juG3hcxSu3Lbax7Km1Erd" 8 "2post2" "The_girl_will_bring_the_horse_an_ice_cream" "Can_you_bring_the_horse_the_ice_cream?" "left" "right" "posttest" "7/28/2022" "15:36" "left" 1 4772.135 1 "2018-07-18" "English " "Na" "Na" "male" "Pre" "DO" "Pred" "New-bis"
"IH45juG3hcxSu3Lbax7Km1Erd" 9 "5post2" "The_prince_will_bring_the_turtle_a_cat" "Can_you_bring_the_turtle_the_cat?" "right" "left" "posttest" "7/28/2022" "15:36" "right" 1 6066.135 1 "2018-07-18" "English " "Na" "Na" "male" "Pre" "DO" "Pred" "New-bis"
"IH45juG3hcxSu3Lbax7Km1Erd" 10 "6post2" "Dora_the_explorer_will_throw_the_puppy_a_hamster" "Can_you_throw_puppy_the_hamster?" "left" "right" "posttest" "7/28/2022" "15:36" "left" 1 6165.135 1 "2018-07-18" "English " "Na" "Na" "male" "Pre" "DO" "Pred" "New-bis"
"JPgnNXCDmCC66mTt1QQMDoaas" 1 "4fillerpost2" "The_prince_will_move_the_blanket_to_the_sofa" "Can_you_move_the_blanket_to_the_sofa?" "right" "left" "posttest_filler" "2/22/2022" "11:09" "right" 1 954.135 1 "2022-02-22" "English" NA NA "male" "Pre" "DO" "Pred" "New-bis"
"JPgnNXCDmCC66mTt1QQMDoaas" 2 "3fillerpost2" "Dora_the_explorer_will_put_the_food_in_the_basket" "Can_you_put_the_food_in_the_basket?" "left" "right" "posttest_filler" "2/22/2022" "11:09" "left" 1 1767.135 1 "2022-02-22" "English" NA NA "male" "Pre" "DO" "Pred" "New-bis"
"JPgnNXCDmCC66mTt1QQMDoaas" 3 "4Post2" "The_princess_will_send_the_lion_a_crocodile" "Can_you_send_the_lion_the_crocodile?" "left" "right" "posttest" "2/22/2022" "11:09" "right" 0 2790.135 1 "2022-02-22" "English" NA NA "male" "Pre" "DO" "Pred" "New-bis"
"JPgnNXCDmCC66mTt1QQMDoaas" 4 "3post2" "Boots_will_throw_the_giraffe_a_balloon" "Can_you_throw_the_giraffe_the_balloon?" "right" "left" "posttest" "2/22/2022" "11:09" "right" 1 3819.135 1 "2022-02-22" "English" NA NA "male" "Pre" "DO" "Pred" "New-bis"
"JPgnNXCDmCC66mTt1QQMDoaas" 5 "5post2" "The_prince_will_bring_the_turtle_a_cat" "Can_you_bring_the_turtle_the_cat?" "left" "right" "posttest" "2/22/2022" "11:09" "left" 1 2199.135 2 "2022-02-22" "English" NA NA "male" "Pre" "DO" "Pred" "New-bis"
"JPgnNXCDmCC66mTt1QQMDoaas" 6 "2fillerpost2" "Boots_will_clean_the_chair_with_the_sponge" "Can_you_clean_the_chair_with_the_sponge?" "right" "left" "posttest_filler" "2/22/2022" "11:09" "right" 1 2995.135 1 "2022-02-22" "English" NA NA "male" "Pre" "DO" "Pred" "New-bis"
"JPgnNXCDmCC66mTt1QQMDoaas" 7 "1Post2" "The_boy_will_send_the_tiger_a_present" "Can_you_send_the_tiger_the_present?" "right" "left" "posttest" "2/22/2022" "11:09" "right" 1 1498.135 1 "2022-02-22" "English" NA NA "male" "Pre" "DO" "Pred" "New-bis"
"JPgnNXCDmCC66mTt1QQMDoaas" 8 "2post2" "The_girl_will_bring_the_horse_an_ice_cream" "Can_you_bring_the_horse_the_ice_cream?" "left" "right" "posttest" "2/22/2022" "11:09" "left" 1 866.135 1 "2022-02-22" "English" NA NA "male" "Pre" "DO" "Pred" "New-bis"
"JPgnNXCDmCC66mTt1QQMDoaas" 9 "1fillerpost2" "The_princess_will_tickle_the_teddy_bear_with_the_feather" "Can_you_tickle_the_teddy_bear_with_the_feather?" "right" "left" "posttest_filler" "2/22/2022" "11:09" "right" 1 2631.135 1 "2022-02-22" "English" NA NA "male" "Pre" "DO" "Pred" "New-bis"
"JPgnNXCDmCC66mTt1QQMDoaas" 10 "6post2" "Dora_the_explorer_will_throw_the_puppy_a_hamster" "Can_you_throw_puppy_the_hamster?" "left" "right" "posttest" "2/22/2022" "11:09" "right" 0 2870.135 1 "2022-02-22" "English" NA NA "male" "Pre" "DO" "Pred" "New-bis"
"pNsQc79CvDmKcwxd8oqMJ9rzO" 1 "4fillerpost2" "The_prince_will_move_the_blanket_to_the_sofa" "Can_you_move_the_blanket_to_the_sofa?" "right" "left" "posttest_filler" "5/17/2022" "10:48" "right" 1 1102.135 1 NA "English " NA NA "female" "Pre" "PO" "NonPred" "New-bis"
"pNsQc79CvDmKcwxd8oqMJ9rzO" 2 "3fillerpost2" "Dora_the_explorer_will_put_the_food_in_the_basket" "Can_you_put_the_food_in_the_basket?" "left" "right" "posttest_filler" "5/17/2022" "10:48" "left" 1 3680.135 1 NA "English " NA NA "female" "Pre" "PO" "NonPred" "New-bis"
"pNsQc79CvDmKcwxd8oqMJ9rzO" 3 "2fillerpost2" "Boots_will_clean_the_chair_with_the_sponge" "Can_you_clean_the_chair_with_the_sponge?" "right" "left" "posttest_filler" "5/17/2022" "10:48" "right" 1 1623.135 1 NA "English " NA NA "female" "Pre" "PO" "NonPred" "New-bis"
"pNsQc79CvDmKcwxd8oqMJ9rzO" 4 "2post2" "The_girl_will_bring_the_horse_an_ice_cream" "Can_you_bring_the_horse_the_ice_cream?" "right" "left" "posttest" "5/17/2022" "10:48" "right" 1 4061.135 1 NA "English " NA NA "female" "Pre" "PO" "NonPred" "New-bis"
"pNsQc79CvDmKcwxd8oqMJ9rzO" 5 "5post2" "The_prince_will_bring_the_turtle_a_cat" "Can_you_bring_the_turtle_the_cat?" "left" "right" "posttest" "5/17/2022" "10:48" "left" 1 877.135 1 NA "English " NA NA "female" "Pre" "PO" "NonPred" "New-bis"
"pNsQc79CvDmKcwxd8oqMJ9rzO" 6 "1Post2" "The_boy_will_send_the_tiger_a_present" "Can_you_send_the_tiger_the_present?" "right" "left" "posttest" "5/17/2022" "10:48" "right" 1 874.135 1 NA "English " NA NA "female" "Pre" "PO" "NonPred" "New-bis"
"pNsQc79CvDmKcwxd8oqMJ9rzO" 7 "6post2" "Dora_the_explorer_will_throw_the_puppy_a_hamster" "Can_you_throw_puppy_the_hamster?" "left" "right" "posttest" "5/17/2022" "10:48" "left" 1 4407.135 1 NA "English " NA NA "female" "Pre" "PO" "NonPred" "New-bis"
"pNsQc79CvDmKcwxd8oqMJ9rzO" 8 "1fillerpost2" "The_princess_will_tickle_the_teddy_bear_with_the_feather" "Can_you_tickle_the_teddy_bear_with_the_feather?" "right" "left" "posttest_filler" "5/17/2022" "10:48" "right" 1 1872.135 1 NA "English " NA NA "female" "Pre" "PO" "NonPred" "New-bis"
"pNsQc79CvDmKcwxd8oqMJ9rzO" 9 "3post2" "Boots_will_throw_the_giraffe_a_balloon" "Can_you_throw_the_giraffe_the_balloon?" "left" "right" "posttest" "5/17/2022" "10:48" "left" 1 775.135 1 NA "English " NA NA "female" "Pre" "PO" "NonPred" "New-bis"
"pNsQc79CvDmKcwxd8oqMJ9rzO" 10 "4Post2" "The_princess_will_send_the_lion_a_crocodile" "Can_you_send_the_lion_the_crocodile?" "left" "right" "posttest" "5/17/2022" "10:48" "right" 0 1285.135 1 NA "English " NA NA "female" "Pre" "PO" "NonPred" "New-bis"
"PXmhfkPC4GCdGnXAN8W9MeoYN" 1 "4fillerpost2" "The_prince_will_move_the_blanket_to_the_sofa" "Can_you_move_the_blanket_to_the_sofa?" "right" "left" "posttest_filler" "7/2/2022" "15:15" "right" 1 5223.135 1 NA NA NA NA "female" "Pre" "PO" "NonPred" "New-bis"
"PXmhfkPC4GCdGnXAN8W9MeoYN" 2 "3fillerpost2" "Dora_the_explorer_will_put_the_food_in_the_basket" "Can_you_put_the_food_in_the_basket?" "left" "right" "posttest_filler" "7/2/2022" "15:15" "left" 1 2474.135 1 NA NA NA NA "female" "Pre" "PO" "NonPred" "New-bis"
"PXmhfkPC4GCdGnXAN8W9MeoYN" 3 "6post2" "Dora_the_explorer_will_throw_the_puppy_a_hamster" "Can_you_throw_puppy_the_hamster?" "right" "left" "posttest" "7/2/2022" "15:15" "right" 1 2955.135 1 NA NA NA NA "female" "Pre" "PO" "NonPred" "New-bis"
"PXmhfkPC4GCdGnXAN8W9MeoYN" 4 "2post2" "The_girl_will_bring_the_horse_an_ice_cream" "Can_you_bring_the_horse_the_ice_cream?" "right" "left" "posttest" "7/2/2022" "15:15" "left" 0 6991.135 1 NA NA NA NA "female" "Pre" "PO" "NonPred" "New-bis"
"PXmhfkPC4GCdGnXAN8W9MeoYN" 5 "1Post2" "The_boy_will_send_the_tiger_a_present" "Can_you_send_the_tiger_the_present?" "right" "left" "posttest" "7/2/2022" "15:15" "left" 0 1727.135 1 NA NA NA NA "female" "Pre" "PO" "NonPred" "New-bis"
"PXmhfkPC4GCdGnXAN8W9MeoYN" 6 "3post2" "Boots_will_throw_the_giraffe_a_balloon" "Can_you_throw_the_giraffe_the_balloon?" "left" "right" "posttest" "7/2/2022" "15:15" "left" 1 11030.135 1 NA NA NA NA "female" "Pre" "PO" "NonPred" "New-bis"
"PXmhfkPC4GCdGnXAN8W9MeoYN" 7 "2fillerpost2" "Boots_will_clean_the_chair_with_the_sponge" "Can_you_clean_the_chair_with_the_sponge?" "right" "left" "posttest_filler" "7/2/2022" "15:15" "right" 1 6426.135 1 NA NA NA NA "female" "Pre" "PO" "NonPred" "New-bis"
"PXmhfkPC4GCdGnXAN8W9MeoYN" 8 "5post2" "The_prince_will_bring_the_turtle_a_cat" "Can_you_bring_the_turtle_the_cat?" "left" "right" "posttest" "7/2/2022" "15:15" "right" 0 2026.135 1 NA NA NA NA "female" "Pre" "PO" "NonPred" "New-bis"
"PXmhfkPC4GCdGnXAN8W9MeoYN" 9 "4Post2" "The_princess_will_send_the_lion_a_crocodile" "Can_you_send_the_lion_the_crocodile?" "left" "right" "posttest" "7/2/2022" "15:15" "left" 1 5499.135 1 NA NA NA NA "female" "Pre" "PO" "NonPred" "New-bis"
"PXmhfkPC4GCdGnXAN8W9MeoYN" 10 "1fillerpost2" "The_princess_will_tickle_the_teddy_bear_with_the_feather" "Can_you_tickle_the_teddy_bear_with_the_feather?" "left" "right" "posttest_filler" "7/2/2022" "15:15" "left" 1 7256.135 1 NA NA NA NA "female" "Pre" "PO" "NonPred" "New-bis"
"QhsX0AqkF522OaKg4ng9m3aR1" 1 "4fillerpost2" "The_prince_will_move_the_blanket_to_the_sofa" "Can_you_move_the_blanket_to_the_sofa?" "right" "left" "posttest_filler" "6/18/2022" "10:37" "right" 1 3687.135 1 "2017-09-03" "English" "Welsh" NA "male" "Post" "PO" "NonPred" "New-bis"
"QhsX0AqkF522OaKg4ng9m3aR1" 2 "3fillerpost2" "Dora_the_explorer_will_put_the_food_in_the_basket" "Can_you_put_the_food_in_the_basket?" "left" "right" "posttest_filler" "6/18/2022" "10:37" "left" 1 1534.135 1 "2017-09-03" "English" "Welsh" NA "male" "Post" "PO" "NonPred" "New-bis"
"QhsX0AqkF522OaKg4ng9m3aR1" 3 "3Pre2" "Peppa_Pig_will_send_the_hamster_a_toy" "Can_you_send_the_hamster_the_toy?" "right" "left" "pretest" "6/18/2022" "10:37" "left" 0 3164.135 1 "2017-09-03" "English" "Welsh" NA "male" "Post" "PO" "NonPred" "New-bis"
"QhsX0AqkF522OaKg4ng9m3aR1" 4 "6Pre2" "Emily_elephant_will_bring_the_mouse_a_rabbit" "Can_you_bring_the_mouse_the_rabbit?" "right" "left" "pretest" "6/18/2022" "10:37" "left" 0 1239.135 1 "2017-09-03" "English" "Welsh" NA "male" "Post" "PO" "NonPred" "New-bis"
"QhsX0AqkF522OaKg4ng9m3aR1" 5 "4FillerPre2" "The_king_will_poke_the_jelly_with_the_fork" "Can_you_poke_the_jelly_with_the_fork?" "right" "left" "pretest_filler" "6/18/2022" "10:37" "right" 1 6959.135 1 "2017-09-03" "English" "Welsh" NA "male" "Post" "PO" "NonPred" "New-bis"
"QhsX0AqkF522OaKg4ng9m3aR1" 6 "5Pre2" "The_queen_will_send_the_monkey_a_horse" "Can_you_send_the_monkey_the_horse?" "left" "right" "pretest" "6/18/2022" "10:37" "left" 1 2256.135 1 "2017-09-03" "English" "Welsh" NA "male" "Post" "PO" "NonPred" "New-bis"
"QhsX0AqkF522OaKg4ng9m3aR1" 7 "2Pre2" "The_girl_will_throw_the_elephant_a_clock" "Can_you_throw_the_elephant_the_clock?" "right" "left" "pretest" "6/18/2022" "10:37" "left" 0 1426.135 1 "2017-09-03" "English" "Welsh" NA "male" "Post" "PO" "NonPred" "New-bis"
"QhsX0AqkF522OaKg4ng9m3aR1" 8 "4Pre2" "The_king_will_throw_the_turtle_a_squirrel" "Can_you_throw_the_turtle_the_squirrel?" "left" "right" "pretest" "6/18/2022" "10:37" "right" 0 4854.135 1 "2017-09-03" "English" "Welsh" NA "male" "Post" "PO" "NonPred" "New-bis"
"QhsX0AqkF522OaKg4ng9m3aR1" 9 "1FillerPre2" "Peppa_pig_will_bounce_the_ball_with_the_bat" "Can_you_bounce_the_ball_with_the_bat?" "left" "right" "pretest_filler" "6/18/2022" "10:37" "right" 0 11671.135 1 "2017-09-03" "English" "Welsh" NA "male" "Post" "PO" "NonPred" "New-bis"
"QhsX0AqkF522OaKg4ng9m3aR1" 10 "1Pre2" "The_boy_will_bring_the_giraffe_a_cake" "Can_you_bring_the_giraffe_the_cake?" "left" "right" "pretest" "6/18/2022" "10:37" "left" 1 1730.135 1 "2017-09-03" "English" "Welsh" NA "male" "Post" "PO" "NonPred" "New-bis"
"racpgWbToYBvm2PZKewi1Bak0" 1 "4fillerpost2" "The_prince_will_move_the_blanket_to_the_sofa" "Can_you_move_the_blanket_to_the_sofa?" "right" "left" "posttest_filler" "12/13/2021" "15:41" "right" 1 3905.135 1 "2016-12-16" "English" "Welsh" NA "male" "Post" "PO" "NonPred" "New-bis"
"racpgWbToYBvm2PZKewi1Bak0" 2 "3fillerpost2" "Dora_the_explorer_will_put_the_food_in_the_basket" "Can_you_put_the_food_in_the_basket?" "left" "right" "posttest_filler" "12/13/2021" "15:41" "left" 1 2343.135 1 "2016-12-16" "English" "Welsh" NA "male" "Post" "PO" "NonPred" "New-bis"
"racpgWbToYBvm2PZKewi1Bak0" 3 "4Pre2" "The_king_will_throw_the_turtle_a_squirrel" "Can_you_throw_the_turtle_the_squirrel?" "left" "right" "pretest" "12/13/2021" "15:41" "left" 1 1422.135 1 "2016-12-16" "English" "Welsh" NA "male" "Post" "PO" "NonPred" "New-bis"
"racpgWbToYBvm2PZKewi1Bak0" 4 "1Pre2" "The_boy_will_bring_the_giraffe_a_cake" "Can_you_bring_the_giraffe_the_cake?" "right" "left" "pretest" "12/13/2021" "15:41" "right" 1 3695.135 1 "2016-12-16" "English" "Welsh" NA "male" "Post" "PO" "NonPred" "New-bis"
"racpgWbToYBvm2PZKewi1Bak0" 5 "2Pre2" "The_girl_will_throw_the_elephant_a_clock" "Can_you_throw_the_elephant_the_clock?" "right" "left" "pretest" "12/13/2021" "15:41" "right" 1 3472.135 1 "2016-12-16" "English" "Welsh" NA "male" "Post" "PO" "NonPred" "New-bis"
"racpgWbToYBvm2PZKewi1Bak0" 6 "6Pre2" "Emily_elephant_will_bring_the_mouse_a_rabbit" "Can_you_bring_the_mouse_the_rabbit?" "left" "right" "pretest" "12/13/2021" "15:41" "right" 0 3696.135 1 "2016-12-16" "English" "Welsh" NA "male" "Post" "PO" "NonPred" "New-bis"
"racpgWbToYBvm2PZKewi1Bak0" 7 "1FillerPre2" "Peppa_pig_will_bounce_the_ball_with_the_bat" "Can_you_bounce_the_ball_with_the_bat?" "right" "left" "pretest_filler" "12/13/2021" "15:41" "left" 0 1644.135 1 "2016-12-16" "English" "Welsh" NA "male" "Post" "PO" "NonPred" "New-bis"
"racpgWbToYBvm2PZKewi1Bak0" 8 "4FillerPre2" "The_king_will_poke_the_jelly_with_the_fork" "Can_you_poke_the_jelly_with_the_fork?" "right" "left" "pretest_filler" "12/13/2021" "15:41" "right" 1 2795.135 1 "2016-12-16" "English" "Welsh" NA "male" "Post" "PO" "NonPred" "New-bis"
"racpgWbToYBvm2PZKewi1Bak0" 9 "5Pre2" "The_queen_will_send_the_monkey_a_horse" "Can_you_send_the_monkey_the_horse?" "left" "right" "pretest" "12/13/2021" "15:41" "left" 1 2593.135 1 "2016-12-16" "English" "Welsh" NA "male" "Post" "PO" "NonPred" "New-bis"
"racpgWbToYBvm2PZKewi1Bak0" 10 "3Pre2" "Peppa_Pig_will_send_the_hamster_a_toy" "Can_you_send_the_hamster_the_toy?" "left" "right" "pretest" "12/13/2021" "15:41" "left" 1 1608.135 1 "2016-12-16" "English" "Welsh" NA "male" "Post" "PO" "NonPred" "New-bis"
"RemoEt3M3aIE9z07lIEvPWnHH" 1 "4fillerpost2" "The_prince_will_move_the_blanket_to_the_sofa" "Can_you_move_the_blanket_to_the_sofa?" "right" "left" "posttest_filler" "1/28/2022" "11:54" "right" 1 4403.135 1 "2022-01-28" "English " NA NA "female" "Pre" "PO" "NonPred" "New-bis"
"RemoEt3M3aIE9z07lIEvPWnHH" 2 "3fillerpost2" "Dora_the_explorer_will_put_the_food_in_the_basket" "Can_you_put_the_food_in_the_basket?" "left" "right" "posttest_filler" "1/28/2022" "11:54" "left" 1 2154.135 1 "2022-01-28" "English " NA NA "female" "Pre" "PO" "NonPred" "New-bis"
"RemoEt3M3aIE9z07lIEvPWnHH" 3 "6post2" "Dora_the_explorer_will_throw_the_puppy_a_hamster" "Can_you_throw_puppy_the_hamster?" "left" "right" "posttest" "1/28/2022" "11:54" "right" 0 1697.135 1 "2022-01-28" "English " NA NA "female" "Pre" "PO" "NonPred" "New-bis"
"RemoEt3M3aIE9z07lIEvPWnHH" 4 "5post2" "The_prince_will_bring_the_turtle_a_cat" "Can_you_bring_the_turtle_the_cat?" "right" "left" "posttest" "1/28/2022" "11:54" "left" 0 1174.135 1 "2022-01-28" "English " NA NA "female" "Pre" "PO" "NonPred" "New-bis"
"RemoEt3M3aIE9z07lIEvPWnHH" 5 "3post2" "Boots_will_throw_the_giraffe_a_balloon" "Can_you_throw_the_giraffe_the_balloon?" "left" "right" "posttest" "1/28/2022" "11:54" "right" 0 946.135 1 "2022-01-28" "English " NA NA "female" "Pre" "PO" "NonPred" "New-bis"
"RemoEt3M3aIE9z07lIEvPWnHH" 6 "1fillerpost2" "The_princess_will_tickle_the_teddy_bear_with_the_feather" "Can_you_tickle_the_teddy_bear_with_the_feather?" "left" "right" "posttest_filler" "1/28/2022" "11:54" "left" 1 2149.135 1 "2022-01-28" "English " NA NA "female" "Pre" "PO" "NonPred" "New-bis"
"RemoEt3M3aIE9z07lIEvPWnHH" 7 "4Post2" "The_princess_will_send_the_lion_a_crocodile" "Can_you_send_the_lion_the_crocodile?" "right" "left" "posttest" "1/28/2022" "11:54" "left" 0 1863.135 1 "2022-01-28" "English " NA NA "female" "Pre" "PO" "NonPred" "New-bis"
"RemoEt3M3aIE9z07lIEvPWnHH" 8 "2post2" "The_girl_will_bring_the_horse_an_ice_cream" "Can_you_bring_the_horse_the_ice_cream?" "right" "left" "posttest" "1/28/2022" "11:54" "left" 0 1930.135 1 "2022-01-28" "English " NA NA "female" "Pre" "PO" "NonPred" "New-bis"
"RemoEt3M3aIE9z07lIEvPWnHH" 9 "1Post2" "The_boy_will_send_the_tiger_a_present" "Can_you_send_the_tiger_the_present?" "right" "left" "posttest" "1/28/2022" "11:54" "left" 0 1524.135 1 "2022-01-28" "English " NA NA "female" "Pre" "PO" "NonPred" "New-bis"
"RemoEt3M3aIE9z07lIEvPWnHH" 10 "2fillerpost2" "Boots_will_clean_the_chair_with_the_sponge" "Can_you_clean_the_chair_with_the_sponge?" "left" "right" "posttest_filler" "1/28/2022" "11:54" "left" 1 1158.135 1 "2022-01-28" "English " NA NA "female" "Pre" "PO" "NonPred" "New-bis"
"RsIri8Xvwi9DjWQsvIi1lXiUX" 1 "4fillerpost2" "The_prince_will_move_the_blanket_to_the_sofa" "Can_you_move_the_blanket_to_the_sofa?" "right" "left" "posttest_filler" "2/25/2022" "9:51" "right" 1 1450.135 1 "2018-01-04" "English" NA NA "female" "Post" "DO" "Pred" "New-bis"
"RsIri8Xvwi9DjWQsvIi1lXiUX" 2 "3fillerpost2" "Dora_the_explorer_will_put_the_food_in_the_basket" "Can_you_put_the_food_in_the_basket?" "left" "right" "posttest_filler" "2/25/2022" "9:51" "left" 1 2966.135 1 "2018-01-04" "English" NA NA "female" "Post" "DO" "Pred" "New-bis"
"RsIri8Xvwi9DjWQsvIi1lXiUX" 3 "6Pre2" "Emily_elephant_will_bring_the_mouse_a_rabbit" "Can_you_bring_the_mouse_the_rabbit?" "right" "left" "pretest" "2/25/2022" "9:51" "left" 0 1084.135 1 "2018-01-04" "English" NA NA "female" "Post" "DO" "Pred" "New-bis"
"RsIri8Xvwi9DjWQsvIi1lXiUX" 4 "1Pre2" "The_boy_will_bring_the_giraffe_a_cake" "Can_you_bring_the_giraffe_the_cake?" "left" "right" "pretest" "2/25/2022" "9:51" "left" 1 3516.135 1 "2018-01-04" "English" NA NA "female" "Post" "DO" "Pred" "New-bis"
"RsIri8Xvwi9DjWQsvIi1lXiUX" 5 "1FillerPre2" "Peppa_pig_will_bounce_the_ball_with_the_bat" "Can_you_bounce_the_ball_with_the_bat?" "left" "right" "pretest_filler" "2/25/2022" "9:51" "right" 0 1967.135 1 "2018-01-04" "English" NA NA "female" "Post" "DO" "Pred" "New-bis"
"RsIri8Xvwi9DjWQsvIi1lXiUX" 6 "2Pre2" "The_girl_will_throw_the_elephant_a_clock" "Can_you_throw_the_elephant_the_clock?" "right" "left" "pretest" "2/25/2022" "9:51" "right" 1 8182.135 1 "2018-01-04" "English" NA NA "female" "Post" "DO" "Pred" "New-bis"
"RsIri8Xvwi9DjWQsvIi1lXiUX" 7 "4Pre2" "The_king_will_throw_the_turtle_a_squirrel" "Can_you_throw_the_turtle_the_squirrel?" "right" "left" "pretest" "2/25/2022" "9:51" "right" 1 882.135 1 "2018-01-04" "English" NA NA "female" "Post" "DO" "Pred" "New-bis"
"RsIri8Xvwi9DjWQsvIi1lXiUX" 8 "4FillerPre2" "The_king_will_poke_the_jelly_with_the_fork" "Can_you_poke_the_jelly_with_the_fork?" "left" "right" "pretest_filler" "2/25/2022" "9:51" "left" 1 7316.135 1 "2018-01-04" "English" NA NA "female" "Post" "DO" "Pred" "New-bis"
"RsIri8Xvwi9DjWQsvIi1lXiUX" 9 "3Pre2" "Peppa_Pig_will_send_the_hamster_a_toy" "Can_you_send_the_hamster_the_toy?" "left" "right" "pretest" "2/25/2022" "9:51" "right" 0 2717.135 1 "2018-01-04" "English" NA NA "female" "Post" "DO" "Pred" "New-bis"
"RsIri8Xvwi9DjWQsvIi1lXiUX" 10 "5Pre2" "The_queen_will_send_the_monkey_a_horse" "Can_you_send_the_monkey_the_horse?" "right" "left" "pretest" "2/25/2022" "9:51" "left" 0 2454.135 1 "2018-01-04" "English" NA NA "female" "Post" "DO" "Pred" "New-bis"
"swh6BVE7cYXxCC9N9gMCzouir" 1 "4fillerpost2" "The_prince_will_move_the_blanket_to_the_sofa" "Can_you_move_the_blanket_to_the_sofa?" "right" "left" "posttest_filler" "8/25/2022" "11:50" "right" 1 1274.135 1 NA "English" "Urdu" NA "female" "Post" "DO" "Pred" "New-bis"
"swh6BVE7cYXxCC9N9gMCzouir" 2 "3fillerpost2" "Dora_the_explorer_will_put_the_food_in_the_basket" "Can_you_put_the_food_in_the_basket?" "left" "right" "posttest_filler" "8/25/2022" "11:50" "left" 1 2591.135 1 NA "English" "Urdu" NA "female" "Post" "DO" "Pred" "New-bis"
"swh6BVE7cYXxCC9N9gMCzouir" 3 "3Pre2" "Peppa_Pig_will_send_the_hamster_a_toy" "Can_you_send_the_hamster_the_toy?" "right" "left" "pretest" "8/25/2022" "11:50" "left" 0 2615.135 1 NA "English" "Urdu" NA "female" "Post" "DO" "Pred" "New-bis"
"swh6BVE7cYXxCC9N9gMCzouir" 4 "2Pre2" "The_girl_will_throw_the_elephant_a_clock" "Can_you_throw_the_elephant_the_clock?" "right" "left" "pretest" "8/25/2022" "11:50" "left" 0 2525.135 1 NA "English" "Urdu" NA "female" "Post" "DO" "Pred" "New-bis"
"swh6BVE7cYXxCC9N9gMCzouir" 5 "5Pre2" "The_queen_will_send_the_monkey_a_horse" "Can_you_send_the_monkey_the_horse?" "left" "right" "pretest" "8/25/2022" "11:50" "right" 0 4175.135 1 NA "English" "Urdu" NA "female" "Post" "DO" "Pred" "New-bis"
"swh6BVE7cYXxCC9N9gMCzouir" 6 "4FillerPre2" "The_king_will_poke_the_jelly_with_the_fork" "Can_you_poke_the_jelly_with_the_fork?" "left" "right" "pretest_filler" "8/25/2022" "11:50" "left" 1 2700.135 1 NA "English" "Urdu" NA "female" "Post" "DO" "Pred" "New-bis"
"swh6BVE7cYXxCC9N9gMCzouir" 7 "1Pre2" "The_boy_will_bring_the_giraffe_a_cake" "Can_you_bring_the_giraffe_the_cake?" "right" "left" "pretest" "8/25/2022" "11:50" "left" 0 2376.135 1 NA "English" "Urdu" NA "female" "Post" "DO" "Pred" "New-bis"
"swh6BVE7cYXxCC9N9gMCzouir" 8 "6Pre2" "Emily_elephant_will_bring_the_mouse_a_rabbit" "Can_you_bring_the_mouse_the_rabbit?" "right" "left" "pretest" "8/25/2022" "11:50" "left" 0 3006.135 1 NA "English" "Urdu" NA "female" "Post" "DO" "Pred" "New-bis"
"swh6BVE7cYXxCC9N9gMCzouir" 9 "1FillerPre2" "Peppa_pig_will_bounce_the_ball_with_the_bat" "Can_you_bounce_the_ball_with_the_bat?" "left" "right" "pretest_filler" "8/25/2022" "11:50" "left" 1 5944.135 1 NA "English" "Urdu" NA "female" "Post" "DO" "Pred" "New-bis"
"swh6BVE7cYXxCC9N9gMCzouir" 10 "4Pre2" "The_king_will_throw_the_turtle_a_squirrel" "Can_you_throw_the_turtle_the_squirrel?" "left" "right" "pretest" "8/25/2022" "11:50" "right" 0 1156.135 1 NA "English" "Urdu" NA "female" "Post" "DO" "Pred" "New-bis"
"WF5BRmB3O3CAqfanjW0CkieI6" 1 "4fillerpost2" "The_prince_will_move_the_blanket_to_the_sofa" "Can_you_move_the_blanket_to_the_sofa?" "right" "left" "posttest_filler" "1/26/2022" "16:25" "right" 1 5275.135 1 "2022-01-26" "French English 50/50" NA NA "female" "Post" "PO" "Pred" "New-bis"
"WF5BRmB3O3CAqfanjW0CkieI6" 2 "3fillerpost2" "Dora_the_explorer_will_put_the_food_in_the_basket" "Can_you_put_the_food_in_the_basket?" "left" "right" "posttest_filler" "1/26/2022" "16:25" "left" 1 3440.135 1 "2022-01-26" "French English 50/50" NA NA "female" "Post" "PO" "Pred" "New-bis"
"WF5BRmB3O3CAqfanjW0CkieI6" 3 "6Pre2" "Emily_elephant_will_bring_the_mouse_a_rabbit" "Can_you_bring_the_mouse_the_rabbit?" "right" "left" "pretest" "1/26/2022" "16:25" "right" 1 3320.135 1 "2022-01-26" "French English 50/50" NA NA "female" "Post" "PO" "Pred" "New-bis"
"WF5BRmB3O3CAqfanjW0CkieI6" 4 "4FillerPre2" "The_king_will_poke_the_jelly_with_the_fork" "Can_you_poke_the_jelly_with_the_fork?" "right" "left" "pretest_filler" "1/26/2022" "16:25" "right" 1 2943.135 1 "2022-01-26" "French English 50/50" NA NA "female" "Post" "PO" "Pred" "New-bis"
"WF5BRmB3O3CAqfanjW0CkieI6" 5 "2Pre2" "The_girl_will_throw_the_elephant_a_clock" "Can_you_throw_the_elephant_the_clock?" "right" "left" "pretest" "1/26/2022" "16:25" "right" 1 1384.135 1 "2022-01-26" "French English 50/50" NA NA "female" "Post" "PO" "Pred" "New-bis"
"WF5BRmB3O3CAqfanjW0CkieI6" 6 "5Pre2" "The_queen_will_send_the_monkey_a_horse" "Can_you_send_the_monkey_the_horse?" "left" "right" "pretest" "1/26/2022" "16:25" "left" 1 3998.135 1 "2022-01-26" "French English 50/50" NA NA "female" "Post" "PO" "Pred" "New-bis"
"WF5BRmB3O3CAqfanjW0CkieI6" 7 "1Pre2" "The_boy_will_bring_the_giraffe_a_cake" "Can_you_bring_the_giraffe_the_cake?" "right" "left" "pretest" "1/26/2022" "16:25" "right" 1 4656.135 1 "2022-01-26" "French English 50/50" NA NA "female" "Post" "PO" "Pred" "New-bis"
"WF5BRmB3O3CAqfanjW0CkieI6" 8 "1FillerPre2" "Peppa_pig_will_bounce_the_ball_with_the_bat" "Can_you_bounce_the_ball_with_the_bat?" "left" "right" "pretest_filler" "1/26/2022" "16:25" "right" 0 1329.135 1 "2022-01-26" "French English 50/50" NA NA "female" "Post" "PO" "Pred" "New-bis"
"WF5BRmB3O3CAqfanjW0CkieI6" 9 "3Pre2" "Peppa_Pig_will_send_the_hamster_a_toy" "Can_you_send_the_hamster_the_toy?" "left" "right" "pretest" "1/26/2022" "16:25" "left" 1 4391.135 1 "2022-01-26" "French English 50/50" NA NA "female" "Post" "PO" "Pred" "New-bis"
"WF5BRmB3O3CAqfanjW0CkieI6" 10 "4Pre2" "The_king_will_throw_the_turtle_a_squirrel" "Can_you_throw_the_turtle_the_squirrel?" "left" "right" "pretest" "1/26/2022" "16:25" "left" 1 597.135 1 "2022-01-26" "French English 50/50" NA NA "female" "Post" "PO" "Pred" "New-bis"
"XU3Fh7Y1UJftHoOGAb5ePNmK4" 1 "4fillerpost2" "The_prince_will_move_the_blanket_to_the_sofa" "Can_you_move_the_blanket_to_the_sofa?" "right" "left" "posttest_filler" "8/15/2022" "12:13" "right" 1 2789.135 1 "2022-08-15" "English" "N/A" "N/A" "male" "Post" "DO" "Pred" "New-bis"
"XU3Fh7Y1UJftHoOGAb5ePNmK4" 2 "3fillerpost2" "Dora_the_explorer_will_put_the_food_in_the_basket" "Can_you_put_the_food_in_the_basket?" "left" "right" "posttest_filler" "8/15/2022" "12:13" "left" 1 2965.135 1 "2022-08-15" "English" "N/A" "N/A" "male" "Post" "DO" "Pred" "New-bis"
"XU3Fh7Y1UJftHoOGAb5ePNmK4" 3 "3Pre2" "Peppa_Pig_will_send_the_hamster_a_toy" "Can_you_send_the_hamster_the_toy?" "left" "right" "pretest" "8/15/2022" "12:13" "right" 0 2026.135 1 "2022-08-15" "English" "N/A" "N/A" "male" "Post" "DO" "Pred" "New-bis"
"XU3Fh7Y1UJftHoOGAb5ePNmK4" 4 "6Pre2" "Emily_elephant_will_bring_the_mouse_a_rabbit" "Can_you_bring_the_mouse_the_rabbit?" "right" "left" "pretest" "8/15/2022" "12:13" "right" 1 1557.135 1 "2022-08-15" "English" "N/A" "N/A" "male" "Post" "DO" "Pred" "New-bis"
"XU3Fh7Y1UJftHoOGAb5ePNmK4" 5 "1FillerPre2" "Peppa_pig_will_bounce_the_ball_with_the_bat" "Can_you_bounce_the_ball_with_the_bat?" "left" "right" "pretest_filler" "8/15/2022" "12:13" "right" 0 2435.135 1 "2022-08-15" "English" "N/A" "N/A" "male" "Post" "DO" "Pred" "New-bis"
"XU3Fh7Y1UJftHoOGAb5ePNmK4" 6 "1Pre2" "The_boy_will_bring_the_giraffe_a_cake" "Can_you_bring_the_giraffe_the_cake?" "left" "right" "pretest" "8/15/2022" "12:13" "left" 1 2277.135 1 "2022-08-15" "English" "N/A" "N/A" "male" "Post" "DO" "Pred" "New-bis"
"XU3Fh7Y1UJftHoOGAb5ePNmK4" 7 "5Pre2" "The_queen_will_send_the_monkey_a_horse" "Can_you_send_the_monkey_the_horse?" "right" "left" "pretest" "8/15/2022" "12:13" "right" 1 954.135 1 "2022-08-15" "English" "N/A" "N/A" "male" "Post" "DO" "Pred" "New-bis"
"XU3Fh7Y1UJftHoOGAb5ePNmK4" 8 "4Pre2" "The_king_will_throw_the_turtle_a_squirrel" "Can_you_throw_the_turtle_the_squirrel?" "right" "left" "pretest" "8/15/2022" "12:13" "left" 0 854.135 1 "2022-08-15" "English" "N/A" "N/A" "male" "Post" "DO" "Pred" "New-bis"
"XU3Fh7Y1UJftHoOGAb5ePNmK4" 9 "4FillerPre2" "The_king_will_poke_the_jelly_with_the_fork" "Can_you_poke_the_jelly_with_the_fork?" "left" "right" "pretest_filler" "8/15/2022" "12:13" "left" 1 4492.135 1 "2022-08-15" "English" "N/A" "N/A" "male" "Post" "DO" "Pred" "New-bis"
"XU3Fh7Y1UJftHoOGAb5ePNmK4" 10 "2Pre2" "The_girl_will_throw_the_elephant_a_clock" "Can_you_throw_the_elephant_the_clock?" "right" "left" "pretest" "8/15/2022" "12:13" "right" 1 3026.135 1 "2022-08-15" "English" "N/A" "N/A" "male" "Post" "DO" "Pred" "New-bis"
"xuMX5QDC0rLQnujVRAYzcGbyt" 1 "4fillerpost2" "The_prince_will_move_the_blanket_to_the_sofa" "Can_you_move_the_blanket_to_the_sofa?" "right" "left" "posttest_filler" "5/15/2022" "14:20" "right" 1 4041.135 1 "2017-10-29" "English" "Welsh" NA "male" "Pre" "PO" "Pred" "New-bis"
"xuMX5QDC0rLQnujVRAYzcGbyt" 2 "3fillerpost2" "Dora_the_explorer_will_put_the_food_in_the_basket" "Can_you_put_the_food_in_the_basket?" "left" "right" "posttest_filler" "5/15/2022" "14:20" "left" 1 5094.135 1 "2017-10-29" "English" "Welsh" NA "male" "Pre" "PO" "Pred" "New-bis"
"xuMX5QDC0rLQnujVRAYzcGbyt" 3 "2fillerpost2" "Boots_will_clean_the_chair_with_the_sponge" "Can_you_clean_the_chair_with_the_sponge?" "left" "right" "posttest_filler" "5/15/2022" "14:20" "left" 1 3749.135 1 "2017-10-29" "English" "Welsh" NA "male" "Pre" "PO" "Pred" "New-bis"
"xuMX5QDC0rLQnujVRAYzcGbyt" 4 "5post2" "The_prince_will_bring_the_turtle_a_cat" "Can_you_bring_the_turtle_the_cat?" "right" "left" "posttest" "5/15/2022" "14:20" "right" 1 1940.135 1 "2017-10-29" "English" "Welsh" NA "male" "Pre" "PO" "Pred" "New-bis"
"xuMX5QDC0rLQnujVRAYzcGbyt" 5 "3post2" "Boots_will_throw_the_giraffe_a_balloon" "Can_you_throw_the_giraffe_the_balloon?" "left" "right" "posttest" "5/15/2022" "14:20" "left" 1 2444.135 1 "2017-10-29" "English" "Welsh" NA "male" "Pre" "PO" "Pred" "New-bis"
"xuMX5QDC0rLQnujVRAYzcGbyt" 6 "4Post2" "The_princess_will_send_the_lion_a_crocodile" "Can_you_send_the_lion_the_crocodile?" "left" "right" "posttest" "5/15/2022" "14:20" "left" 1 3828.135 1 "2017-10-29" "English" "Welsh" NA "male" "Pre" "PO" "Pred" "New-bis"
"xuMX5QDC0rLQnujVRAYzcGbyt" 7 "6post2" "Dora_the_explorer_will_throw_the_puppy_a_hamster" "Can_you_throw_puppy_the_hamster?" "right" "left" "posttest" "5/15/2022" "14:20" "right" 1 2959.135 1 "2017-10-29" "English" "Welsh" NA "male" "Pre" "PO" "Pred" "New-bis"
"xuMX5QDC0rLQnujVRAYzcGbyt" 8 "1Post2" "The_boy_will_send_the_tiger_a_present" "Can_you_send_the_tiger_the_present?" "right" "left" "posttest" "5/15/2022" "14:20" "right" 1 2306.135 1 "2017-10-29" "English" "Welsh" NA "male" "Pre" "PO" "Pred" "New-bis"
"xuMX5QDC0rLQnujVRAYzcGbyt" 9 "2post2" "The_girl_will_bring_the_horse_an_ice_cream" "Can_you_bring_the_horse_the_ice_cream?" "left" "right" "posttest" "5/15/2022" "14:20" "left" 1 3774.135 1 "2017-10-29" "English" "Welsh" NA "male" "Pre" "PO" "Pred" "New-bis"
"xuMX5QDC0rLQnujVRAYzcGbyt" 10 "1fillerpost2" "The_princess_will_tickle_the_teddy_bear_with_the_feather" "Can_you_tickle_the_teddy_bear_with_the_feather?" "right" "left" "posttest_filler" "5/15/2022" "14:20" "right" 1 3473.135 1 "2017-10-29" "English" "Welsh" NA "male" "Pre" "PO" "Pred" "New-bis"
