"subject_id" "trial_number" "trial_id" "target_sentence" "question" "target_side" "other_side" "trial_type" "date_stamp" "time_stamp" "side_chosen" "accuracy" "rt" "play_counter" "date_of_birth" "native_lang" "other_langs" "dev_info" "gender" "order" "sentence_type" "animacy" "version"
"1ebbSRddusMUfuZicVGxXhkbI" 1 "2FillerPre2" "The_boy_will_put_the_train_in_the_box" "Can_you_put_the_train_in_the_box?" "right" "left" "pretest_filler" "7/1/2019" "10:43" "right" 1 2803.104 1 "20/02/15" "English" NA NA "male" "Pre" "PO" "NonPred" "Old"
"1ebbSRddusMUfuZicVGxXhkbI" 2 "3FillerPre2" "The_girl_will_move_the_hat_to_the_table" "Can_you_move_the_hat_to_the_table?" "left" "right" "pretest_filler" "7/1/2019" "10:43" "left" 1 1352.104 1 "20/02/15" "English" NA NA "male" "Pre" "PO" "NonPred" "Old"
"1ebbSRddusMUfuZicVGxXhkbI" 3 "3Pre2" "Peppa_Pig_will_send_the_hamster_a_toy" "Can_you_send_the_hamster_the_toy?" "left" "right" "pretest" "7/1/2019" "10:43" "right" 0 1411.104 1 "20/02/15" "English" NA NA "male" "Pre" "PO" "NonPred" "Old"
"1ebbSRddusMUfuZicVGxXhkbI" 4 "6Pre2" "Emily_elephant_will_bring_the_mouse_a_rabbit" "Can_you_bring_the_mouse_the_rabbit?" "left" "right" "pretest" "7/1/2019" "10:43" "left" 1 4695.104 1 "20/02/15" "English" NA NA "male" "Pre" "PO" "NonPred" "Old"
"1ebbSRddusMUfuZicVGxXhkbI" 5 "5Pre2" "The_queen_will_send_the_monkey_a_horse" "Can_you_send_the_monkey_the_horse?" "right" "left" "pretest" "7/1/2019" "10:43" "left" 0 6938.104 1 "20/02/15" "English" NA NA "male" "Pre" "PO" "NonPred" "Old"
"1ebbSRddusMUfuZicVGxXhkbI" 6 "2Pre2" "The_girl_will_throw_the_elephant_a_clock" "Can_you_throw_the_elephant_the_clock?" "right" "left" "pretest" "7/1/2019" "10:43" "left" 0 8433.104 1 "20/02/15" "English" NA NA "male" "Pre" "PO" "NonPred" "Old"
"1ebbSRddusMUfuZicVGxXhkbI" 7 "1FillerPre2" "Peppa_pig_will_bounce_the_ball_with_the_bat" "Can_you_bounce_the_ball_with_the_bat?" "right" "left" "pretest_filler" "7/1/2019" "10:43" "left" 0 2821.104 1 "20/02/15" "English" NA NA "male" "Pre" "PO" "NonPred" "Old"
"1ebbSRddusMUfuZicVGxXhkbI" 8 "4FillerPre2" "The_king_will_poke_the_jelly_with_the_fork" "Can_you_poke_the_jelly_with_the_fork?" "left" "right" "pretest_filler" "7/1/2019" "10:43" "left" 1 4967.104 1 "20/02/15" "English" NA NA "male" "Pre" "PO" "NonPred" "Old"
"1ebbSRddusMUfuZicVGxXhkbI" 9 "1Pre2" "The_boy_will_bring_the_giraffe_a_cake" "Can_you_bring_the_giraffe_the_cake?" "left" "right" "pretest" "7/1/2019" "10:43" "right" 0 31861.104 1 "20/02/15" "English" NA NA "male" "Pre" "PO" "NonPred" "Old"
"1ebbSRddusMUfuZicVGxXhkbI" 10 "4Pre2" "The_king_will_throw_the_turtle_a_squirrel" "Can_you_throw_the_turtle_the_squirrel?" "right" "left" "pretest" "7/1/2019" "10:43" "left" 0 2207.104 1 "20/02/15" "English" NA NA "male" "Pre" "PO" "NonPred" "Old"
"2GHibkOORxf1BEG7fHceuUNve" 1 "2FillerPre2" "The_boy_will_put_the_train_in_the_box" "Can_you_put_the_train_in_the_box?" "right" "left" "pretest_filler" "06/05/2019" "14:19" "right" 1 3846.104 1 "10/01/2015" "English" NA NA "male" "Post" "DO" "Pred" "Old"
"2GHibkOORxf1BEG7fHceuUNve" 2 "3FillerPre2" "The_girl_will_move_the_hat_to_the_table" "Can_you_move_the_hat_to_the_table?" "left" "right" "pretest_filler" "06/05/2019" "14:19" "left" 1 4186.104 1 "10/01/2015" "English" NA NA "male" "Post" "DO" "Pred" "Old"
"2GHibkOORxf1BEG7fHceuUNve" 3 "1fillerpost2" "The_princess_will_tickle_the_teddy_bear_with_the_feather" "Can_you_tickle_the_teddy_bear_with_the_feather?" "left" "right" "posttest_filler" "06/05/2019" "14:19" "left" 1 4435.104 2 "10/01/2015" "English" NA NA "male" "Post" "DO" "Pred" "Old"
"2GHibkOORxf1BEG7fHceuUNve" 4 "6post2" "Dora_the_explorer_will_throw_the_puppy_a_hamster" "Can_you_throw_puppy_the_hamster?" "right" "left" "posttest" "06/05/2019" "14:19" "right" 1 2747.104 1 "10/01/2015" "English" NA NA "male" "Post" "DO" "Pred" "Old"
"2GHibkOORxf1BEG7fHceuUNve" 5 "1Post2" "The_boy_will_send_the_tiger_a_present" "Can_you_send_the_tiger_the_present?" "left" "right" "posttest" "06/05/2019" "14:19" "left" 1 1056.104 1 "10/01/2015" "English" NA NA "male" "Post" "DO" "Pred" "Old"
"2GHibkOORxf1BEG7fHceuUNve" 6 "3post2" "Boots_will_throw_the_giraffe_a_balloon" "Can_you_throw_the_giraffe_the_balloon?" "right" "left" "posttest" "06/05/2019" "14:19" "right" 1 2180.104 1 "10/01/2015" "English" NA NA "male" "Post" "DO" "Pred" "Old"
"2GHibkOORxf1BEG7fHceuUNve" 7 "5post2" "The_prince_will_bring_the_turtle_a_cat" "Can_you_bring_the_turtle_the_cat?" "right" "left" "posttest" "06/05/2019" "14:19" "right" 1 2675.104 1 "10/01/2015" "English" NA NA "male" "Post" "DO" "Pred" "Old"
"2GHibkOORxf1BEG7fHceuUNve" 8 "2post2" "The_girl_will_bring_the_horse_an_ice_cream" "Can_you_bring_the_horse_the_ice_cream?" "left" "right" "posttest" "06/05/2019" "14:19" "left" 1 1635.104 1 "10/01/2015" "English" NA NA "male" "Post" "DO" "Pred" "Old"
"2GHibkOORxf1BEG7fHceuUNve" 9 "2fillerpost2" "Boots_will_clean_the_chair_with_the_sponge" "Can_you_clean_the_chair_with_the_sponge?" "left" "right" "posttest_filler" "06/05/2019" "14:19" "left" 1 997.104 1 "10/01/2015" "English" NA NA "male" "Post" "DO" "Pred" "Old"
"2GHibkOORxf1BEG7fHceuUNve" 10 "4Post2" "The_princess_will_send_the_lion_a_crocodile" "Can_you_send_the_lion_the_crocodile?" "right" "left" "posttest" "06/05/2019" "14:19" "right" 1 2353.104 1 "10/01/2015" "English" NA NA "male" "Post" "DO" "Pred" "Old"
"2hYJmUF5jJEGGI7LxAbvsImqO" 1 "2FillerPre2" "The_boy_will_put_the_train_in_the_box" "Can_you_put_the_train_in_the_box?" "right" "left" "pretest_filler" "6/28/2019" "10:10" "right" 1 4320.104 1 "31/01/2015" "English" NA NA "male" "Post" "PO" "NonPred" "Old"
"2hYJmUF5jJEGGI7LxAbvsImqO" 2 "3FillerPre2" "The_girl_will_move_the_hat_to_the_table" "Can_you_move_the_hat_to_the_table?" "left" "right" "pretest_filler" "6/28/2019" "10:10" "left" 1 1997.104 1 "31/01/2015" "English" NA NA "male" "Post" "PO" "NonPred" "Old"
"2hYJmUF5jJEGGI7LxAbvsImqO" 3 "6post2" "Dora_the_explorer_will_throw_the_puppy_a_hamster" "Can_you_throw_puppy_the_hamster?" "left" "right" "posttest" "6/28/2019" "10:10" "right" 0 8089.104 1 "31/01/2015" "English" NA NA "male" "Post" "PO" "NonPred" "Old"
"2hYJmUF5jJEGGI7LxAbvsImqO" 4 "4Post2" "The_princess_will_send_the_lion_a_crocodile" "Can_you_send_the_lion_the_crocodile?" "left" "right" "posttest" "6/28/2019" "10:10" "right" 0 7985.104 1 "31/01/2015" "English" NA NA "male" "Post" "PO" "NonPred" "Old"
"2hYJmUF5jJEGGI7LxAbvsImqO" 5 "5post2" "The_prince_will_bring_the_turtle_a_cat" "Can_you_bring_the_turtle_the_cat?" "right" "left" "posttest" "6/28/2019" "10:10" "left" 0 3258.104 1 "31/01/2015" "English" NA NA "male" "Post" "PO" "NonPred" "Old"
"2hYJmUF5jJEGGI7LxAbvsImqO" 6 "2post2" "The_girl_will_bring_the_horse_an_ice_cream" "Can_you_bring_the_horse_the_ice_cream?" "right" "left" "posttest" "6/28/2019" "10:10" "left" 0 3057.104 1 "31/01/2015" "English" NA NA "male" "Post" "PO" "NonPred" "Old"
"2hYJmUF5jJEGGI7LxAbvsImqO" 7 "1fillerpost2" "The_princess_will_tickle_the_teddy_bear_with_the_feather" "Can_you_tickle_the_teddy_bear_with_the_feather?" "left" "right" "posttest_filler" "6/28/2019" "10:10" "left" 1 4262.104 1 "31/01/2015" "English" NA NA "male" "Post" "PO" "NonPred" "Old"
"2hYJmUF5jJEGGI7LxAbvsImqO" 8 "3post2" "Boots_will_throw_the_giraffe_a_balloon" "Can_you_throw_the_giraffe_the_balloon?" "right" "left" "posttest" "6/28/2019" "10:10" "left" 0 2682.104 1 "31/01/2015" "English" NA NA "male" "Post" "PO" "NonPred" "Old"
"2hYJmUF5jJEGGI7LxAbvsImqO" 9 "1Post2" "The_boy_will_send_the_tiger_a_present" "Can_you_send_the_tiger_the_present?" "right" "left" "posttest" "6/28/2019" "10:10" "left" 0 7898.104 1 "31/01/2015" "English" NA NA "male" "Post" "PO" "NonPred" "Old"
"2hYJmUF5jJEGGI7LxAbvsImqO" 10 "2fillerpost2" "Boots_will_clean_the_chair_with_the_sponge" "Can_you_clean_the_chair_with_the_sponge?" "left" "right" "posttest_filler" "6/28/2019" "10:10" "left" 1 2898.104 1 "31/01/2015" "English" NA NA "male" "Post" "PO" "NonPred" "Old"
"498wbE6Ds1TB31uO9iPg2FSGC" 1 "2FillerPre2" "The_boy_will_put_the_train_in_the_box" "Can_you_put_the_train_in_the_box?" "right" "left" "pretest_filler" "6/17/2019" "11:19" "right" 1 1668.104 1 "10/05/2015" "English" "Welsh" NA "female" "Pre" "PO" "Pred" "Old"
"498wbE6Ds1TB31uO9iPg2FSGC" 2 "3FillerPre2" "The_girl_will_move_the_hat_to_the_table" "Can_you_move_the_hat_to_the_table?" "left" "right" "pretest_filler" "6/17/2019" "11:19" "left" 1 2232.104 1 "10/05/2015" "English" "Welsh" NA "female" "Pre" "PO" "Pred" "Old"
"498wbE6Ds1TB31uO9iPg2FSGC" 3 "4FillerPre2" "The_king_will_poke_the_jelly_with_the_fork" "Can_you_poke_the_jelly_with_the_fork?" "left" "right" "pretest_filler" "6/17/2019" "11:19" "left" 1 1683.104 1 "10/05/2015" "English" "Welsh" NA "female" "Pre" "PO" "Pred" "Old"
"498wbE6Ds1TB31uO9iPg2FSGC" 4 "6Pre2" "Emily_elephant_will_bring_the_mouse_a_rabbit" "Can_you_bring_the_mouse_the_rabbit?" "left" "right" "pretest" "6/17/2019" "11:19" "right" 0 1423.104 1 "10/05/2015" "English" "Welsh" NA "female" "Pre" "PO" "Pred" "Old"
"498wbE6Ds1TB31uO9iPg2FSGC" 5 "3Pre2" "Peppa_Pig_will_send_the_hamster_a_toy" "Can_you_send_the_hamster_the_toy?" "right" "left" "pretest" "6/17/2019" "11:19" "left" 0 1693.104 1 "10/05/2015" "English" "Welsh" NA "female" "Pre" "PO" "Pred" "Old"
"498wbE6Ds1TB31uO9iPg2FSGC" 6 "4Pre2" "The_king_will_throw_the_turtle_a_squirrel" "Can_you_throw_the_turtle_the_squirrel?" "left" "right" "pretest" "6/17/2019" "11:19" "right" 0 1126.104 1 "10/05/2015" "English" "Welsh" NA "female" "Pre" "PO" "Pred" "Old"
"498wbE6Ds1TB31uO9iPg2FSGC" 7 "5Pre2" "The_queen_will_send_the_monkey_a_horse" "Can_you_send_the_monkey_the_horse?" "right" "left" "pretest" "6/17/2019" "11:19" "left" 0 1572.104 1 "10/05/2015" "English" "Welsh" NA "female" "Pre" "PO" "Pred" "Old"
"498wbE6Ds1TB31uO9iPg2FSGC" 8 "2Pre2" "The_girl_will_throw_the_elephant_a_clock" "Can_you_throw_the_elephant_the_clock?" "right" "left" "pretest" "6/17/2019" "11:19" "right" 1 13295.104 1 "10/05/2015" "English" "Welsh" NA "female" "Pre" "PO" "Pred" "Old"
"498wbE6Ds1TB31uO9iPg2FSGC" 9 "1Pre2" "The_boy_will_bring_the_giraffe_a_cake" "Can_you_bring_the_giraffe_the_cake?" "right" "left" "pretest" "6/17/2019" "11:19" "right" 1 2763.104 1 "10/05/2015" "English" "Welsh" NA "female" "Pre" "PO" "Pred" "Old"
"498wbE6Ds1TB31uO9iPg2FSGC" 10 "1FillerPre2" "Peppa_pig_will_bounce_the_ball_with_the_bat" "Can_you_bounce_the_ball_with_the_bat?" "left" "right" "pretest_filler" "6/17/2019" "11:19" "right" 0 2509.104 1 "10/05/2015" "English" "Welsh" NA "female" "Pre" "PO" "Pred" "Old"
"61x4FnXrK9rg95OYskMdijIyJ" 1 "2FillerPre2" "The_boy_will_put_the_train_in_the_box" "Can_you_put_the_train_in_the_box?" "right" "left" "pretest_filler" "7/17/2019" "14:31" "right" 1 7976.104 1 "08/11/13" "English" NA NA "female" "Post" "PO" "Pred" "Old"
"61x4FnXrK9rg95OYskMdijIyJ" 2 "3FillerPre2" "The_girl_will_move_the_hat_to_the_table" "Can_you_move_the_hat_to_the_table?" "left" "right" "pretest_filler" "7/17/2019" "14:31" "left" 1 14073.104 1 "08/11/13" "English" NA NA "female" "Post" "PO" "Pred" "Old"
"61x4FnXrK9rg95OYskMdijIyJ" 3 "1Post2" "The_boy_will_send_the_tiger_a_present" "Can_you_send_the_tiger_the_present?" "left" "right" "posttest" "7/17/2019" "14:31" "left" 1 6069.104 1 "08/11/13" "English" NA NA "female" "Post" "PO" "Pred" "Old"
"61x4FnXrK9rg95OYskMdijIyJ" 4 "2fillerpost2" "Boots_will_clean_the_chair_with_the_sponge" "Can_you_clean_the_chair_with_the_sponge?" "right" "left" "posttest_filler" "7/17/2019" "14:31" "right" 1 3368.104 1 "08/11/13" "English" NA NA "female" "Post" "PO" "Pred" "Old"
"61x4FnXrK9rg95OYskMdijIyJ" 5 "4Post2" "The_princess_will_send_the_lion_a_crocodile" "Can_you_send_the_lion_the_crocodile?" "left" "right" "posttest" "7/17/2019" "14:31" "left" 1 13371.104 1 "08/11/13" "English" NA NA "female" "Post" "PO" "Pred" "Old"
"61x4FnXrK9rg95OYskMdijIyJ" 6 "1fillerpost2" "The_princess_will_tickle_the_teddy_bear_with_the_feather" "Can_you_tickle_the_teddy_bear_with_the_feather?" "left" "right" "posttest_filler" "7/17/2019" "14:31" "left" 1 5276.104 1 "08/11/13" "English" NA NA "female" "Post" "PO" "Pred" "Old"
"61x4FnXrK9rg95OYskMdijIyJ" 7 "6post2" "Dora_the_explorer_will_throw_the_puppy_a_hamster" "Can_you_throw_puppy_the_hamster?" "right" "left" "posttest" "7/17/2019" "14:31" "left" 0 7089.104 1 "08/11/13" "English" NA NA "female" "Post" "PO" "Pred" "Old"
"61x4FnXrK9rg95OYskMdijIyJ" 8 "3post2" "Boots_will_throw_the_giraffe_a_balloon" "Can_you_throw_the_giraffe_the_balloon?" "left" "right" "posttest" "7/17/2019" "14:31" "right" 0 4196.104 1 "08/11/13" "English" NA NA "female" "Post" "PO" "Pred" "Old"
"61x4FnXrK9rg95OYskMdijIyJ" 9 "2post2" "The_girl_will_bring_the_horse_an_ice_cream" "Can_you_bring_the_horse_the_ice_cream?" "right" "left" "posttest" "7/17/2019" "14:31" "left" 0 3281.104 1 "08/11/13" "English" NA NA "female" "Post" "PO" "Pred" "Old"
"61x4FnXrK9rg95OYskMdijIyJ" 10 "5post2" "The_prince_will_bring_the_turtle_a_cat" "Can_you_bring_the_turtle_the_cat?" "right" "left" "posttest" "7/17/2019" "14:31" "left" 0 2311.104 1 "08/11/13" "English" NA NA "female" "Post" "PO" "Pred" "Old"
"7MSbwhpozV3MbVAdES2Ot3Yed" 1 "2FillerPre2" "The_boy_will_put_the_train_in_the_box" "Can_you_put_the_train_in_the_box?" "right" "left" "pretest_filler" "7/17/2019" "14:12" "right" 1 2314.104 1 "30/11/13" "English" NA NA "female" "Pre" "PO" "NonPred" "Old"
"7MSbwhpozV3MbVAdES2Ot3Yed" 2 "3FillerPre2" "The_girl_will_move_the_hat_to_the_table" "Can_you_move_the_hat_to_the_table?" "left" "right" "pretest_filler" "7/17/2019" "14:12" "left" 1 1181.104 1 "30/11/13" "English" NA NA "female" "Pre" "PO" "NonPred" "Old"
"7MSbwhpozV3MbVAdES2Ot3Yed" 3 "4FillerPre2" "The_king_will_poke_the_jelly_with_the_fork" "Can_you_poke_the_jelly_with_the_fork?" "right" "left" "pretest_filler" "7/17/2019" "14:12" "right" 1 2779.104 1 "30/11/13" "English" NA NA "female" "Pre" "PO" "NonPred" "Old"
"7MSbwhpozV3MbVAdES2Ot3Yed" 4 "4Pre2" "The_king_will_throw_the_turtle_a_squirrel" "Can_you_throw_the_turtle_the_squirrel?" "right" "left" "pretest" "7/17/2019" "14:12" "left" 0 26522.104 1 "30/11/13" "English" NA NA "female" "Pre" "PO" "NonPred" "Old"
"7MSbwhpozV3MbVAdES2Ot3Yed" 5 "1FillerPre2" "Peppa_pig_will_bounce_the_ball_with_the_bat" "Can_you_bounce_the_ball_with_the_bat?" "left" "right" "pretest_filler" "7/17/2019" "14:12" "left" 1 5531.104 1 "30/11/13" "English" NA NA "female" "Pre" "PO" "NonPred" "Old"
"7MSbwhpozV3MbVAdES2Ot3Yed" 6 "5Pre2" "The_queen_will_send_the_monkey_a_horse" "Can_you_send_the_monkey_the_horse?" "left" "right" "pretest" "7/17/2019" "14:12" "left" 1 1902.104 1 "30/11/13" "English" NA NA "female" "Pre" "PO" "NonPred" "Old"
"7MSbwhpozV3MbVAdES2Ot3Yed" 7 "2Pre2" "The_girl_will_throw_the_elephant_a_clock" "Can_you_throw_the_elephant_the_clock?" "left" "right" "pretest" "7/17/2019" "14:12" "left" 1 4075.104 1 "30/11/13" "English" NA NA "female" "Pre" "PO" "NonPred" "Old"
"7MSbwhpozV3MbVAdES2Ot3Yed" 8 "1Pre2" "The_boy_will_bring_the_giraffe_a_cake" "Can_you_bring_the_giraffe_the_cake?" "right" "left" "pretest" "7/17/2019" "14:12" "right" 1 2098.104 1 "30/11/13" "English" NA NA "female" "Pre" "PO" "NonPred" "Old"
"7MSbwhpozV3MbVAdES2Ot3Yed" 9 "6Pre2" "Emily_elephant_will_bring_the_mouse_a_rabbit" "Can_you_bring_the_mouse_the_rabbit?" "left" "right" "pretest" "7/17/2019" "14:12" "left" 1 1670.104 1 "30/11/13" "English" NA NA "female" "Pre" "PO" "NonPred" "Old"
"7MSbwhpozV3MbVAdES2Ot3Yed" 10 "3Pre2" "Peppa_Pig_will_send_the_hamster_a_toy" "Can_you_send_the_hamster_the_toy?" "right" "left" "pretest" "7/17/2019" "14:12" "right" 1 2599.104 1 "30/11/13" "English" NA NA "female" "Pre" "PO" "NonPred" "Old"
"7VD7Nx9teJprkUcPfXD2yLYyi" 1 "2FillerPre2" "The_boy_will_put_the_train_in_the_box" "Can_you_put_the_train_in_the_box?" "right" "left" "pretest_filler" "7/18/2019" "13:41" "right" 1 2577.104 1 "10/12/14" "English" NA NA "male" "Post" "PO" "NonPred" "Old"
"7VD7Nx9teJprkUcPfXD2yLYyi" 2 "3FillerPre2" "The_girl_will_move_the_hat_to_the_table" "Can_you_move_the_hat_to_the_table?" "left" "right" "pretest_filler" "7/18/2019" "13:41" "left" 1 2174.104 1 "10/12/14" "English" NA NA "male" "Post" "PO" "NonPred" "Old"
"7VD7Nx9teJprkUcPfXD2yLYyi" 3 "1Post2" "The_boy_will_send_the_tiger_a_present" "Can_you_send_the_tiger_the_present?" "right" "left" "posttest" "7/18/2019" "13:41" "right" 1 2445.104 1 "10/12/14" "English" NA NA "male" "Post" "PO" "NonPred" "Old"
"7VD7Nx9teJprkUcPfXD2yLYyi" 4 "6post2" "Dora_the_explorer_will_throw_the_puppy_a_hamster" "Can_you_throw_puppy_the_hamster?" "right" "left" "posttest" "7/18/2019" "13:41" "right" 1 2655.104 1 "10/12/14" "English" NA NA "male" "Post" "PO" "NonPred" "Old"
"7VD7Nx9teJprkUcPfXD2yLYyi" 5 "3post2" "Boots_will_throw_the_giraffe_a_balloon" "Can_you_throw_the_giraffe_the_balloon?" "left" "right" "posttest" "7/18/2019" "13:41" "left" 1 3287.104 1 "10/12/14" "English" NA NA "male" "Post" "PO" "NonPred" "Old"
"7VD7Nx9teJprkUcPfXD2yLYyi" 6 "2post2" "The_girl_will_bring_the_horse_an_ice_cream" "Can_you_bring_the_horse_the_ice_cream?" "right" "left" "posttest" "7/18/2019" "13:41" "right" 1 3208.104 1 "10/12/14" "English" NA NA "male" "Post" "PO" "NonPred" "Old"
"7VD7Nx9teJprkUcPfXD2yLYyi" 7 "1fillerpost2" "The_princess_will_tickle_the_teddy_bear_with_the_feather" "Can_you_tickle_the_teddy_bear_with_the_feather?" "left" "right" "posttest_filler" "7/18/2019" "13:41" "left" 1 5920.104 1 "10/12/14" "English" NA NA "male" "Post" "PO" "NonPred" "Old"
"7VD7Nx9teJprkUcPfXD2yLYyi" 8 "4Post2" "The_princess_will_send_the_lion_a_crocodile" "Can_you_send_the_lion_the_crocodile?" "right" "left" "posttest" "7/18/2019" "13:41" "right" 1 6418.104 1 "10/12/14" "English" NA NA "male" "Post" "PO" "NonPred" "Old"
"7VD7Nx9teJprkUcPfXD2yLYyi" 9 "5post2" "The_prince_will_bring_the_turtle_a_cat" "Can_you_bring_the_turtle_the_cat?" "left" "right" "posttest" "7/18/2019" "13:41" "left" 1 1513.104 1 "10/12/14" "English" NA NA "male" "Post" "PO" "NonPred" "Old"
"7VD7Nx9teJprkUcPfXD2yLYyi" 10 "2fillerpost2" "Boots_will_clean_the_chair_with_the_sponge" "Can_you_clean_the_chair_with_the_sponge?" "left" "right" "posttest_filler" "7/18/2019" "13:41" "left" 1 3341.104 1 "10/12/14" "English" NA NA "male" "Post" "PO" "NonPred" "Old"
"8j4VM43BeCn8rJgGNRSr36Zqu" 1 "2FillerPre2" "The_boy_will_put_the_train_in_the_box" "Can_you_put_the_train_in_the_box?" "right" "left" "pretest_filler" "7/1/2019" "09:58" "right" 1 2916.104 1 "25/05/15" "English" NA NA "male" "Post" "PO" "Pred" "Old"
"8j4VM43BeCn8rJgGNRSr36Zqu" 2 "3FillerPre2" "The_girl_will_move_the_hat_to_the_table" "Can_you_move_the_hat_to_the_table?" "left" "right" "pretest_filler" "7/1/2019" "09:58" "left" 1 1810.104 1 "25/05/15" "English" NA NA "male" "Post" "PO" "Pred" "Old"
"8j4VM43BeCn8rJgGNRSr36Zqu" 3 "1fillerpost2" "The_princess_will_tickle_the_teddy_bear_with_the_feather" "Can_you_tickle_the_teddy_bear_with_the_feather?" "left" "right" "posttest_filler" "7/1/2019" "09:58" "left" 1 2946.104 1 "25/05/15" "English" NA NA "male" "Post" "PO" "Pred" "Old"
"8j4VM43BeCn8rJgGNRSr36Zqu" 4 "4Post2" "The_princess_will_send_the_lion_a_crocodile" "Can_you_send_the_lion_the_crocodile?" "right" "left" "posttest" "7/1/2019" "09:58" "right" 1 1752.104 1 "25/05/15" "English" NA NA "male" "Post" "PO" "Pred" "Old"
"8j4VM43BeCn8rJgGNRSr36Zqu" 5 "2post2" "The_girl_will_bring_the_horse_an_ice_cream" "Can_you_bring_the_horse_the_ice_cream?" "right" "left" "posttest" "7/1/2019" "09:58" "right" 1 8727.104 1 "25/05/15" "English" NA NA "male" "Post" "PO" "Pred" "Old"
"8j4VM43BeCn8rJgGNRSr36Zqu" 6 "2fillerpost2" "Boots_will_clean_the_chair_with_the_sponge" "Can_you_clean_the_chair_with_the_sponge?" "left" "right" "posttest_filler" "7/1/2019" "09:58" "left" 1 2029.104 1 "25/05/15" "English" NA NA "male" "Post" "PO" "Pred" "Old"
"8j4VM43BeCn8rJgGNRSr36Zqu" 7 "3post2" "Boots_will_throw_the_giraffe_a_balloon" "Can_you_throw_the_giraffe_the_balloon?" "left" "right" "posttest" "7/1/2019" "09:58" "left" 1 1581.104 1 "25/05/15" "English" NA NA "male" "Post" "PO" "Pred" "Old"
"8j4VM43BeCn8rJgGNRSr36Zqu" 8 "5post2" "The_prince_will_bring_the_turtle_a_cat" "Can_you_bring_the_turtle_the_cat?" "right" "left" "posttest" "7/1/2019" "09:58" "left" 0 1461.104 1 "25/05/15" "English" NA NA "male" "Post" "PO" "Pred" "Old"
"8j4VM43BeCn8rJgGNRSr36Zqu" 9 "1Post2" "The_boy_will_send_the_tiger_a_present" "Can_you_send_the_tiger_the_present?" "right" "left" "posttest" "7/1/2019" "09:58" "right" 1 1213.104 1 "25/05/15" "English" NA NA "male" "Post" "PO" "Pred" "Old"
"8j4VM43BeCn8rJgGNRSr36Zqu" 10 "6post2" "Dora_the_explorer_will_throw_the_puppy_a_hamster" "Can_you_throw_puppy_the_hamster?" "left" "right" "posttest" "7/1/2019" "09:58" "left" 1 2481.104 1 "25/05/15" "English" NA NA "male" "Post" "PO" "Pred" "Old"
"8jgAPlNrNhf7NHal2NhRU5cKP" 1 "2FillerPre2" "The_boy_will_put_the_train_in_the_box" "Can_you_put_the_train_in_the_box?" "right" "left" "pretest_filler" "07/08/2019" "10:40" "right" 1 4765.104 1 "23/03/2015" "English" NA NA "female" "Pre" "DO" "Pred" "Old"
"8jgAPlNrNhf7NHal2NhRU5cKP" 2 "3FillerPre2" "The_girl_will_move_the_hat_to_the_table" "Can_you_move_the_hat_to_the_table?" "left" "right" "pretest_filler" "07/08/2019" "10:40" "left" 1 2527.104 1 "23/03/2015" "English" NA NA "female" "Pre" "DO" "Pred" "Old"
"8jgAPlNrNhf7NHal2NhRU5cKP" 3 "2Pre2" "The_girl_will_throw_the_elephant_a_clock" "Can_you_throw_the_elephant_the_clock?" "left" "right" "pretest" "07/08/2019" "10:40" "left" 1 4093.104 1 "23/03/2015" "English" NA NA "female" "Pre" "DO" "Pred" "Old"
"8jgAPlNrNhf7NHal2NhRU5cKP" 4 "4FillerPre2" "The_king_will_poke_the_jelly_with_the_fork" "Can_you_poke_the_jelly_with_the_fork?" "right" "left" "pretest_filler" "07/08/2019" "10:40" "left" 0 5863.104 1 "23/03/2015" "English" NA NA "female" "Pre" "DO" "Pred" "Old"
"8jgAPlNrNhf7NHal2NhRU5cKP" 5 "4Pre2" "The_king_will_throw_the_turtle_a_squirrel" "Can_you_throw_the_turtle_the_squirrel?" "right" "left" "pretest" "07/08/2019" "10:40" "left" 0 1991.104 1 "23/03/2015" "English" NA NA "female" "Pre" "DO" "Pred" "Old"
"8jgAPlNrNhf7NHal2NhRU5cKP" 6 "1FillerPre2" "Peppa_pig_will_bounce_the_ball_with_the_bat" "Can_you_bounce_the_ball_with_the_bat?" "left" "right" "pretest_filler" "07/08/2019" "10:40" "right" 0 3963.104 1 "23/03/2015" "English" NA NA "female" "Pre" "DO" "Pred" "Old"
"8jgAPlNrNhf7NHal2NhRU5cKP" 7 "3Pre2" "Peppa_Pig_will_send_the_hamster_a_toy" "Can_you_send_the_hamster_the_toy?" "right" "left" "pretest" "07/08/2019" "10:40" "left" 0 2750.104 1 "23/03/2015" "English" NA NA "female" "Pre" "DO" "Pred" "Old"
"8jgAPlNrNhf7NHal2NhRU5cKP" 8 "5Pre2" "The_queen_will_send_the_monkey_a_horse" "Can_you_send_the_monkey_the_horse?" "left" "right" "pretest" "07/08/2019" "10:40" "right" 0 5063.104 1 "23/03/2015" "English" NA NA "female" "Pre" "DO" "Pred" "Old"
"8jgAPlNrNhf7NHal2NhRU5cKP" 9 "6Pre2" "Emily_elephant_will_bring_the_mouse_a_rabbit" "Can_you_bring_the_mouse_the_rabbit?" "right" "left" "pretest" "07/08/2019" "10:40" "right" 1 1398.104 1 "23/03/2015" "English" NA NA "female" "Pre" "DO" "Pred" "Old"
"8jgAPlNrNhf7NHal2NhRU5cKP" 10 "1Pre2" "The_boy_will_bring_the_giraffe_a_cake" "Can_you_bring_the_giraffe_the_cake?" "left" "right" "pretest" "07/08/2019" "10:40" "left" 1 2248.104 1 "23/03/2015" "English" NA NA "female" "Pre" "DO" "Pred" "Old"
"9oOzdNvMMW6vNEGycT3BoCh0X" 1 "2FillerPre2" "The_boy_will_put_the_train_in_the_box" "Can_you_put_the_train_in_the_box?" "right" "left" "pretest_filler" "7/18/2019" "12:47" "right" 1 2544.104 1 "06/02/15" "English" NA NA "Female" "Pre" "PO" "NonPred" "Old"
"9oOzdNvMMW6vNEGycT3BoCh0X" 2 "3FillerPre2" "The_girl_will_move_the_hat_to_the_table" "Can_you_move_the_hat_to_the_table?" "left" "right" "pretest_filler" "7/18/2019" "12:47" "left" 1 1718.104 1 "06/02/15" "English" NA NA "Female" "Pre" "PO" "NonPred" "Old"
"9oOzdNvMMW6vNEGycT3BoCh0X" 3 "4Pre2" "The_king_will_throw_the_turtle_a_squirrel" "Can_you_throw_the_turtle_the_squirrel?" "left" "right" "pretest" "7/18/2019" "12:47" "right" 0 4980.104 1 "06/02/15" "English" NA NA "Female" "Pre" "PO" "NonPred" "Old"
"9oOzdNvMMW6vNEGycT3BoCh0X" 4 "1Pre2" "The_boy_will_bring_the_giraffe_a_cake" "Can_you_bring_the_giraffe_the_cake?" "right" "left" "pretest" "7/18/2019" "12:47" "left" 0 2420.104 1 "06/02/15" "English" NA NA "Female" "Pre" "PO" "NonPred" "Old"
"9oOzdNvMMW6vNEGycT3BoCh0X" 5 "6Pre2" "Emily_elephant_will_bring_the_mouse_a_rabbit" "Can_you_bring_the_mouse_the_rabbit?" "left" "right" "pretest" "7/18/2019" "12:47" "right" 0 2229.104 1 "06/02/15" "English" NA NA "Female" "Pre" "PO" "NonPred" "Old"
"9oOzdNvMMW6vNEGycT3BoCh0X" 6 "5Pre2" "The_queen_will_send_the_monkey_a_horse" "Can_you_send_the_monkey_the_horse?" "left" "right" "pretest" "7/18/2019" "12:47" "right" 0 3395.104 1 "06/02/15" "English" NA NA "Female" "Pre" "PO" "NonPred" "Old"
"9oOzdNvMMW6vNEGycT3BoCh0X" 7 "3Pre2" "Peppa_Pig_will_send_the_hamster_a_toy" "Can_you_send_the_hamster_the_toy?" "right" "left" "pretest" "7/18/2019" "12:47" "right" 1 3057.104 1 "06/02/15" "English" NA NA "Female" "Pre" "PO" "NonPred" "Old"
"9oOzdNvMMW6vNEGycT3BoCh0X" 8 "1FillerPre2" "Peppa_pig_will_bounce_the_ball_with_the_bat" "Can_you_bounce_the_ball_with_the_bat?" "right" "left" "pretest_filler" "7/18/2019" "12:47" "left" 0 1495.104 1 "06/02/15" "English" NA NA "Female" "Pre" "PO" "NonPred" "Old"
"9oOzdNvMMW6vNEGycT3BoCh0X" 9 "2Pre2" "The_girl_will_throw_the_elephant_a_clock" "Can_you_throw_the_elephant_the_clock?" "right" "left" "pretest" "7/18/2019" "12:47" "right" 1 2515.104 1 "06/02/15" "English" NA NA "Female" "Pre" "PO" "NonPred" "Old"
"9oOzdNvMMW6vNEGycT3BoCh0X" 10 "4FillerPre2" "The_king_will_poke_the_jelly_with_the_fork" "Can_you_poke_the_jelly_with_the_fork?" "left" "right" "pretest_filler" "7/18/2019" "12:47" "left" 1 1903.104 1 "06/02/15" "English" NA NA "Female" "Pre" "PO" "NonPred" "Old"
"ADXIiawnQr5yIJGK7wAHFuoWo" 1 "2FillerPre2" "The_boy_will_put_the_train_in_the_box" "Can_you_put_the_train_in_the_box?" "right" "left" "pretest_filler" "4/17/2019" "12:56" "right" 1 2464.104 1 "04/09/2014" "English" NA NA "male" "Post" "DO" "Pred" "Old"
"ADXIiawnQr5yIJGK7wAHFuoWo" 2 "3FillerPre2" "The_girl_will_move_the_hat_to_the_table" "Can_you_move_the_hat_to_the_table?" "left" "right" "pretest_filler" "4/17/2019" "12:56" "left" 1 1129.104 1 "04/09/2014" "English" NA NA "male" "Post" "DO" "Pred" "Old"
"ADXIiawnQr5yIJGK7wAHFuoWo" 3 "2fillerpost2" "Boots_will_clean_the_chair_with_the_sponge" "Can_you_clean_the_chair_with_the_sponge?" "left" "right" "posttest_filler" "4/17/2019" "12:56" "left" 1 4206.104 1 "04/09/2014" "English" NA NA "male" "Post" "DO" "Pred" "Old"
"ADXIiawnQr5yIJGK7wAHFuoWo" 4 "4Post2" "The_princess_will_send_the_lion_a_crocodile" "Can_you_send_the_lion_the_crocodile?" "left" "right" "posttest" "4/17/2019" "12:56" "left" 1 2738.104 1 "04/09/2014" "English" NA NA "male" "Post" "DO" "Pred" "Old"
"ADXIiawnQr5yIJGK7wAHFuoWo" 5 "2post2" "The_girl_will_bring_the_horse_an_ice_cream" "Can_you_bring_the_horse_the_ice_cream?" "right" "left" "posttest" "4/17/2019" "12:56" "left" 0 1565.104 1 "04/09/2014" "English" NA NA "male" "Post" "DO" "Pred" "Old"
"ADXIiawnQr5yIJGK7wAHFuoWo" 6 "1Post2" "The_boy_will_send_the_tiger_a_present" "Can_you_send_the_tiger_the_present?" "right" "left" "posttest" "4/17/2019" "12:56" "left" 0 1227.104 1 "04/09/2014" "English" NA NA "male" "Post" "DO" "Pred" "Old"
"ADXIiawnQr5yIJGK7wAHFuoWo" 7 "1fillerpost2" "The_princess_will_tickle_the_teddy_bear_with_the_feather" "Can_you_tickle_the_teddy_bear_with_the_feather?" "right" "left" "posttest_filler" "4/17/2019" "12:56" "left" 0 2245.104 1 "04/09/2014" "English" NA NA "male" "Post" "DO" "Pred" "Old"
"ADXIiawnQr5yIJGK7wAHFuoWo" 8 "6post2" "Dora_the_explorer_will_throw_the_puppy_a_hamster" "Can_you_throw_puppy_the_hamster?" "left" "right" "posttest" "4/17/2019" "12:56" "left" 1 3489.104 1 "04/09/2014" "English" NA NA "male" "Post" "DO" "Pred" "Old"
"ADXIiawnQr5yIJGK7wAHFuoWo" 9 "5post2" "The_prince_will_bring_the_turtle_a_cat" "Can_you_bring_the_turtle_the_cat?" "right" "left" "posttest" "4/17/2019" "12:56" "left" 0 1114.104 1 "04/09/2014" "English" NA NA "male" "Post" "DO" "Pred" "Old"
"ADXIiawnQr5yIJGK7wAHFuoWo" 10 "3post2" "Boots_will_throw_the_giraffe_a_balloon" "Can_you_throw_the_giraffe_the_balloon?" "left" "right" "posttest" "4/17/2019" "12:56" "right" 0 2875.104 1 "04/09/2014" "English" NA NA "male" "Post" "DO" "Pred" "Old"
"AvrWsudy6bn6efmJizjfrJFJh" 1 "2FillerPre2" "The_boy_will_put_the_train_in_the_box" "Can_you_put_the_train_in_the_box?" "right" "left" "pretest_filler" "6/25/2019" "09:21" "right" 1 2394.104 1 "25/07/2014" "English" NA NA "female" "Post" "PO" "Pred" "Old"
"AvrWsudy6bn6efmJizjfrJFJh" 2 "3FillerPre2" "The_girl_will_move_the_hat_to_the_table" "Can_you_move_the_hat_to_the_table?" "left" "right" "pretest_filler" "6/25/2019" "09:21" "left" 1 1407.104 1 "25/07/2014" "English" NA NA "female" "Post" "PO" "Pred" "Old"
"AvrWsudy6bn6efmJizjfrJFJh" 3 "3post2" "Boots_will_throw_the_giraffe_a_balloon" "Can_you_throw_the_giraffe_the_balloon?" "right" "left" "posttest" "6/25/2019" "09:21" "left" 0 5501.104 1 "25/07/2014" "English" NA NA "female" "Post" "PO" "Pred" "Old"
"AvrWsudy6bn6efmJizjfrJFJh" 4 "4Post2" "The_princess_will_send_the_lion_a_crocodile" "Can_you_send_the_lion_the_crocodile?" "left" "right" "posttest" "6/25/2019" "09:21" "right" 0 3849.104 1 "25/07/2014" "English" NA NA "female" "Post" "PO" "Pred" "Old"
"AvrWsudy6bn6efmJizjfrJFJh" 5 "1fillerpost2" "The_princess_will_tickle_the_teddy_bear_with_the_feather" "Can_you_tickle_the_teddy_bear_with_the_feather?" "left" "right" "posttest_filler" "6/25/2019" "09:21" "left" 1 6931.104 1 "25/07/2014" "English" NA NA "female" "Post" "PO" "Pred" "Old"
"AvrWsudy6bn6efmJizjfrJFJh" 6 "6post2" "Dora_the_explorer_will_throw_the_puppy_a_hamster" "Can_you_throw_puppy_the_hamster?" "right" "left" "posttest" "6/25/2019" "09:21" "left" 0 946.104 1 "25/07/2014" "English" NA NA "female" "Post" "PO" "Pred" "Old"
"AvrWsudy6bn6efmJizjfrJFJh" 7 "2post2" "The_girl_will_bring_the_horse_an_ice_cream" "Can_you_bring_the_horse_the_ice_cream?" "right" "left" "posttest" "6/25/2019" "09:21" "left" 0 1862.104 1 "25/07/2014" "English" NA NA "female" "Post" "PO" "Pred" "Old"
"AvrWsudy6bn6efmJizjfrJFJh" 8 "5post2" "The_prince_will_bring_the_turtle_a_cat" "Can_you_bring_the_turtle_the_cat?" "left" "right" "posttest" "6/25/2019" "09:21" "right" 0 1812.104 1 "25/07/2014" "English" NA NA "female" "Post" "PO" "Pred" "Old"
"AvrWsudy6bn6efmJizjfrJFJh" 9 "1Post2" "The_boy_will_send_the_tiger_a_present" "Can_you_send_the_tiger_the_present?" "left" "right" "posttest" "6/25/2019" "09:21" "right" 0 1480.104 1 "25/07/2014" "English" NA NA "female" "Post" "PO" "Pred" "Old"
"AvrWsudy6bn6efmJizjfrJFJh" 10 "2fillerpost2" "Boots_will_clean_the_chair_with_the_sponge" "Can_you_clean_the_chair_with_the_sponge?" "right" "left" "posttest_filler" "6/25/2019" "09:21" "right" 1 1698.104 1 "25/07/2014" "English" NA NA "female" "Post" "PO" "Pred" "Old"
"AX082cIs5N5jjZORvfNQmWpNp" 1 "2FillerPre2" "The_boy_will_put_the_train_in_the_box" "Can_you_put_the_train_in_the_box?" "right" "left" "pretest_filler" "4/24/2019" "11:53" "right" 1 4750.104 1 "25/09/2014" "English" NA NA "female" "Post" "PO" "Pred" "Old"
"AX082cIs5N5jjZORvfNQmWpNp" 2 "3FillerPre2" "The_girl_will_move_the_hat_to_the_table" "Can_you_move_the_hat_to_the_table?" "left" "right" "pretest_filler" "4/24/2019" "11:53" "left" 1 3996.104 1 "25/09/2014" "English" NA NA "female" "Post" "PO" "Pred" "Old"
"AX082cIs5N5jjZORvfNQmWpNp" 3 "5post2" "The_prince_will_bring_the_turtle_a_cat" "Can_you_bring_the_turtle_the_cat?" "right" "left" "posttest" "4/24/2019" "11:53" "left" 0 13336.104 1 "25/09/2014" "English" NA NA "female" "Post" "PO" "Pred" "Old"
"AX082cIs5N5jjZORvfNQmWpNp" 4 "3post2" "Boots_will_throw_the_giraffe_a_balloon" "Can_you_throw_the_giraffe_the_balloon?" "right" "left" "posttest" "4/24/2019" "11:53" "right" 1 4860.104 1 "25/09/2014" "English" NA NA "female" "Post" "PO" "Pred" "Old"
"AX082cIs5N5jjZORvfNQmWpNp" 5 "6post2" "Dora_the_explorer_will_throw_the_puppy_a_hamster" "Can_you_throw_puppy_the_hamster?" "left" "right" "posttest" "4/24/2019" "11:53" "right" 0 5585.104 1 "25/09/2014" "English" NA NA "female" "Post" "PO" "Pred" "Old"
"AX082cIs5N5jjZORvfNQmWpNp" 6 "2fillerpost2" "Boots_will_clean_the_chair_with_the_sponge" "Can_you_clean_the_chair_with_the_sponge?" "left" "right" "posttest_filler" "4/24/2019" "11:53" "left" 1 6420.104 1 "25/09/2014" "English" NA NA "female" "Post" "PO" "Pred" "Old"
"AX082cIs5N5jjZORvfNQmWpNp" 7 "4Post2" "The_princess_will_send_the_lion_a_crocodile" "Can_you_send_the_lion_the_crocodile?" "left" "right" "posttest" "4/24/2019" "11:53" "left" 1 3211.104 1 "25/09/2014" "English" NA NA "female" "Post" "PO" "Pred" "Old"
"AX082cIs5N5jjZORvfNQmWpNp" 8 "1Post2" "The_boy_will_send_the_tiger_a_present" "Can_you_send_the_tiger_the_present?" "right" "left" "posttest" "4/24/2019" "11:53" "right" 1 1907.104 1 "25/09/2014" "English" NA NA "female" "Post" "PO" "Pred" "Old"
"AX082cIs5N5jjZORvfNQmWpNp" 9 "2post2" "The_girl_will_bring_the_horse_an_ice_cream" "Can_you_bring_the_horse_the_ice_cream?" "right" "left" "posttest" "4/24/2019" "11:53" "right" 1 1844.104 1 "25/09/2014" "English" NA NA "female" "Post" "PO" "Pred" "Old"
"AX082cIs5N5jjZORvfNQmWpNp" 10 "1fillerpost2" "The_princess_will_tickle_the_teddy_bear_with_the_feather" "Can_you_tickle_the_teddy_bear_with_the_feather?" "left" "right" "posttest_filler" "4/24/2019" "11:53" "left" 1 5884.104 1 "25/09/2014" "English" NA NA "female" "Post" "PO" "Pred" "Old"
"CcaRecvQJxLPFcSqlx9GAxcDv" 1 "2FillerPre2" "The_boy_will_put_the_train_in_the_box" "Can_you_put_the_train_in_the_box?" "right" "left" "pretest_filler" "7/17/2019" "10:36" "right" 1 1286.104 1 "24/09/2014" "English" NA NA "male" "Post" "DO" "Pred" "Old"
"CcaRecvQJxLPFcSqlx9GAxcDv" 2 "3FillerPre2" "The_girl_will_move_the_hat_to_the_table" "Can_you_move_the_hat_to_the_table?" "left" "right" "pretest_filler" "7/17/2019" "10:36" "left" 1 1430.104 1 "24/09/2014" "English" NA NA "male" "Post" "DO" "Pred" "Old"
"CcaRecvQJxLPFcSqlx9GAxcDv" 3 "2fillerpost2" "Boots_will_clean_the_chair_with_the_sponge" "Can_you_clean_the_chair_with_the_sponge?" "left" "right" "posttest_filler" "7/17/2019" "10:36" "left" 1 8393.104 1 "24/09/2014" "English" NA NA "male" "Post" "DO" "Pred" "Old"
"CcaRecvQJxLPFcSqlx9GAxcDv" 4 "5post2" "The_prince_will_bring_the_turtle_a_cat" "Can_you_bring_the_turtle_the_cat?" "right" "left" "posttest" "7/17/2019" "10:36" "left" 0 2707.104 1 "24/09/2014" "English" NA NA "male" "Post" "DO" "Pred" "Old"
"CcaRecvQJxLPFcSqlx9GAxcDv" 5 "1fillerpost2" "The_princess_will_tickle_the_teddy_bear_with_the_feather" "Can_you_tickle_the_teddy_bear_with_the_feather?" "left" "right" "posttest_filler" "7/17/2019" "10:36" "left" 1 7210.104 1 "24/09/2014" "English" NA NA "male" "Post" "DO" "Pred" "Old"
"CcaRecvQJxLPFcSqlx9GAxcDv" 6 "6post2" "Dora_the_explorer_will_throw_the_puppy_a_hamster" "Can_you_throw_puppy_the_hamster?" "left" "right" "posttest" "7/17/2019" "10:36" "right" 0 3236.104 1 "24/09/2014" "English" NA NA "male" "Post" "DO" "Pred" "Old"
"CcaRecvQJxLPFcSqlx9GAxcDv" 7 "2post2" "The_girl_will_bring_the_horse_an_ice_cream" "Can_you_bring_the_horse_the_ice_cream?" "right" "left" "posttest" "7/17/2019" "10:36" "left" 0 2471.104 1 "24/09/2014" "English" NA NA "male" "Post" "DO" "Pred" "Old"
"CcaRecvQJxLPFcSqlx9GAxcDv" 8 "4Post2" "The_princess_will_send_the_lion_a_crocodile" "Can_you_send_the_lion_the_crocodile?" "right" "left" "posttest" "7/17/2019" "10:36" "left" 0 1836.104 1 "24/09/2014" "English" NA NA "male" "Post" "DO" "Pred" "Old"
"CcaRecvQJxLPFcSqlx9GAxcDv" 9 "3post2" "Boots_will_throw_the_giraffe_a_balloon" "Can_you_throw_the_giraffe_the_balloon?" "left" "right" "posttest" "7/17/2019" "10:36" "right" 0 1435.104 1 "24/09/2014" "English" NA NA "male" "Post" "DO" "Pred" "Old"
"CcaRecvQJxLPFcSqlx9GAxcDv" 10 "1Post2" "The_boy_will_send_the_tiger_a_present" "Can_you_send_the_tiger_the_present?" "right" "left" "posttest" "7/17/2019" "10:36" "left" 0 1609.104 1 "24/09/2014" "English" NA NA "male" "Post" "DO" "Pred" "Old"
"Co8n5Rdiwg7ItIlIvt1Y8UAh8" 1 "2FillerPre2" "The_boy_will_put_the_train_in_the_box" "Can_you_put_the_train_in_the_box?" "right" "left" "pretest_filler" "07/08/2019" "10:58" "right" 1 2438.104 1 "24/05/2019" "English" NA NA "male" "Post" "DO" "Pred" "Old"
"Co8n5Rdiwg7ItIlIvt1Y8UAh8" 2 "3FillerPre2" "The_girl_will_move_the_hat_to_the_table" "Can_you_move_the_hat_to_the_table?" "left" "right" "pretest_filler" "07/08/2019" "10:58" "left" 1 1750.104 1 "24/05/2019" "English" NA NA "male" "Post" "DO" "Pred" "Old"
"Co8n5Rdiwg7ItIlIvt1Y8UAh8" 3 "4Post2" "The_princess_will_send_the_lion_a_crocodile" "Can_you_send_the_lion_the_crocodile?" "right" "left" "posttest" "07/08/2019" "10:58" "right" 1 2472.104 1 "24/05/2019" "English" NA NA "male" "Post" "DO" "Pred" "Old"
"Co8n5Rdiwg7ItIlIvt1Y8UAh8" 4 "2fillerpost2" "Boots_will_clean_the_chair_with_the_sponge" "Can_you_clean_the_chair_with_the_sponge?" "left" "right" "posttest_filler" "07/08/2019" "10:58" "left" 1 3045.104 1 "24/05/2019" "English" NA NA "male" "Post" "DO" "Pred" "Old"
"Co8n5Rdiwg7ItIlIvt1Y8UAh8" 5 "1fillerpost2" "The_princess_will_tickle_the_teddy_bear_with_the_feather" "Can_you_tickle_the_teddy_bear_with_the_feather?" "right" "left" "posttest_filler" "07/08/2019" "10:58" "right" 1 5763.104 1 "24/05/2019" "English" NA NA "male" "Post" "DO" "Pred" "Old"
"Co8n5Rdiwg7ItIlIvt1Y8UAh8" 6 "1Post2" "The_boy_will_send_the_tiger_a_present" "Can_you_send_the_tiger_the_present?" "right" "left" "posttest" "07/08/2019" "10:58" "right" 1 1716.104 1 "24/05/2019" "English" NA NA "male" "Post" "DO" "Pred" "Old"
"Co8n5Rdiwg7ItIlIvt1Y8UAh8" 7 "3post2" "Boots_will_throw_the_giraffe_a_balloon" "Can_you_throw_the_giraffe_the_balloon?" "left" "right" "posttest" "07/08/2019" "10:58" "left" 1 3938.104 1 "24/05/2019" "English" NA NA "male" "Post" "DO" "Pred" "Old"
"Co8n5Rdiwg7ItIlIvt1Y8UAh8" 8 "2post2" "The_girl_will_bring_the_horse_an_ice_cream" "Can_you_bring_the_horse_the_ice_cream?" "left" "right" "posttest" "07/08/2019" "10:58" "left" 1 1412.104 1 "24/05/2019" "English" NA NA "male" "Post" "DO" "Pred" "Old"
"Co8n5Rdiwg7ItIlIvt1Y8UAh8" 9 "6post2" "Dora_the_explorer_will_throw_the_puppy_a_hamster" "Can_you_throw_puppy_the_hamster?" "left" "right" "posttest" "07/08/2019" "10:58" "left" 1 2241.104 1 "24/05/2019" "English" NA NA "male" "Post" "DO" "Pred" "Old"
"Co8n5Rdiwg7ItIlIvt1Y8UAh8" 10 "5post2" "The_prince_will_bring_the_turtle_a_cat" "Can_you_bring_the_turtle_the_cat?" "right" "left" "posttest" "07/08/2019" "10:58" "right" 1 1951.104 1 "24/05/2019" "English" NA NA "male" "Post" "DO" "Pred" "Old"
"DuCpKX1bRkSFGjBv9kD8PDads" 1 "2FillerPre2" "The_boy_will_put_the_train_in_the_box" "Can_you_put_the_train_in_the_box?" "right" "left" "pretest_filler" "6/17/2019" "10:08" "right" 1 2120.104 1 "13/06/2019" "English" NA NA "female" "Post" "PO" "NonPred" "Old"
"DuCpKX1bRkSFGjBv9kD8PDads" 2 "3FillerPre2" "The_girl_will_move_the_hat_to_the_table" "Can_you_move_the_hat_to_the_table?" "left" "right" "pretest_filler" "6/17/2019" "10:08" "left" 1 1351.104 1 "13/06/2019" "English" NA NA "female" "Post" "PO" "NonPred" "Old"
"DuCpKX1bRkSFGjBv9kD8PDads" 3 "5post2" "The_prince_will_bring_the_turtle_a_cat" "Can_you_bring_the_turtle_the_cat?" "left" "right" "posttest" "6/17/2019" "10:08" "right" 0 3243.104 1 "13/06/2019" "English" NA NA "female" "Post" "PO" "NonPred" "Old"
"DuCpKX1bRkSFGjBv9kD8PDads" 4 "2fillerpost2" "Boots_will_clean_the_chair_with_the_sponge" "Can_you_clean_the_chair_with_the_sponge?" "left" "right" "posttest_filler" "6/17/2019" "10:08" "left" 1 3337.104 1 "13/06/2019" "English" NA NA "female" "Post" "PO" "NonPred" "Old"
"DuCpKX1bRkSFGjBv9kD8PDads" 5 "6post2" "Dora_the_explorer_will_throw_the_puppy_a_hamster" "Can_you_throw_puppy_the_hamster?" "right" "left" "posttest" "6/17/2019" "10:08" "left" 0 2659.104 1 "13/06/2019" "English" NA NA "female" "Post" "PO" "NonPred" "Old"
"DuCpKX1bRkSFGjBv9kD8PDads" 6 "3post2" "Boots_will_throw_the_giraffe_a_balloon" "Can_you_throw_the_giraffe_the_balloon?" "left" "right" "posttest" "6/17/2019" "10:08" "right" 0 2900.104 1 "13/06/2019" "English" NA NA "female" "Post" "PO" "NonPred" "Old"
"DuCpKX1bRkSFGjBv9kD8PDads" 7 "4Post2" "The_princess_will_send_the_lion_a_crocodile" "Can_you_send_the_lion_the_crocodile?" "right" "left" "posttest" "6/17/2019" "10:08" "left" 0 1658.104 1 "13/06/2019" "English" NA NA "female" "Post" "PO" "NonPred" "Old"
"DuCpKX1bRkSFGjBv9kD8PDads" 8 "2post2" "The_girl_will_bring_the_horse_an_ice_cream" "Can_you_bring_the_horse_the_ice_cream?" "right" "left" "posttest" "6/17/2019" "10:08" "left" 0 3676.104 1 "13/06/2019" "English" NA NA "female" "Post" "PO" "NonPred" "Old"
"DuCpKX1bRkSFGjBv9kD8PDads" 9 "1Post2" "The_boy_will_send_the_tiger_a_present" "Can_you_send_the_tiger_the_present?" "right" "left" "posttest" "6/17/2019" "10:08" "left" 0 2867.104 1 "13/06/2019" "English" NA NA "female" "Post" "PO" "NonPred" "Old"
"DuCpKX1bRkSFGjBv9kD8PDads" 10 "1fillerpost2" "The_princess_will_tickle_the_teddy_bear_with_the_feather" "Can_you_tickle_the_teddy_bear_with_the_feather?" "left" "right" "posttest_filler" "6/17/2019" "10:08" "left" 1 2752.104 1 "13/06/2019" "English" NA NA "female" "Post" "PO" "NonPred" "Old"
"E4eEjp8jdT9dLuiNCdUwCyceJ" 1 "2FillerPre2" "The_boy_will_put_the_train_in_the_box" "Can_you_put_the_train_in_the_box?" "right" "left" "pretest_filler" "7/17/2019" "13:48" "right" 1 6553.104 1 "06/01/2014" "English" NA NA "female" "Pre" "PO" "Pred" "Old"
"E4eEjp8jdT9dLuiNCdUwCyceJ" 2 "3FillerPre2" "The_girl_will_move_the_hat_to_the_table" "Can_you_move_the_hat_to_the_table?" "left" "right" "pretest_filler" "7/17/2019" "13:48" "left" 1 2024.104 1 "06/01/2014" "English" NA NA "female" "Pre" "PO" "Pred" "Old"
"E4eEjp8jdT9dLuiNCdUwCyceJ" 3 "6Pre2" "Emily_elephant_will_bring_the_mouse_a_rabbit" "Can_you_bring_the_mouse_the_rabbit?" "left" "right" "pretest" "7/17/2019" "13:48" "right" 0 4252.104 1 "06/01/2014" "English" NA NA "female" "Pre" "PO" "Pred" "Old"
"E4eEjp8jdT9dLuiNCdUwCyceJ" 4 "1FillerPre2" "Peppa_pig_will_bounce_the_ball_with_the_bat" "Can_you_bounce_the_ball_with_the_bat?" "right" "left" "pretest_filler" "7/17/2019" "13:48" "right" 1 6720.104 1 "06/01/2014" "English" NA NA "female" "Pre" "PO" "Pred" "Old"
"E4eEjp8jdT9dLuiNCdUwCyceJ" 5 "4Pre2" "The_king_will_throw_the_turtle_a_squirrel" "Can_you_throw_the_turtle_the_squirrel?" "right" "left" "pretest" "7/17/2019" "13:48" "left" 0 2417.104 1 "06/01/2014" "English" NA NA "female" "Pre" "PO" "Pred" "Old"
"E4eEjp8jdT9dLuiNCdUwCyceJ" 6 "2Pre2" "The_girl_will_throw_the_elephant_a_clock" "Can_you_throw_the_elephant_the_clock?" "left" "right" "pretest" "7/17/2019" "13:48" "right" 0 2818.104 1 "06/01/2014" "English" NA NA "female" "Pre" "PO" "Pred" "Old"
"E4eEjp8jdT9dLuiNCdUwCyceJ" 7 "1Pre2" "The_boy_will_bring_the_giraffe_a_cake" "Can_you_bring_the_giraffe_the_cake?" "right" "left" "pretest" "7/17/2019" "13:48" "left" 0 3172.104 1 "06/01/2014" "English" NA NA "female" "Pre" "PO" "Pred" "Old"
"E4eEjp8jdT9dLuiNCdUwCyceJ" 8 "4FillerPre2" "The_king_will_poke_the_jelly_with_the_fork" "Can_you_poke_the_jelly_with_the_fork?" "right" "left" "pretest_filler" "7/17/2019" "13:48" "right" 1 5174.104 1 "06/01/2014" "English" NA NA "female" "Pre" "PO" "Pred" "Old"
"E4eEjp8jdT9dLuiNCdUwCyceJ" 9 "5Pre2" "The_queen_will_send_the_monkey_a_horse" "Can_you_send_the_monkey_the_horse?" "left" "right" "pretest" "7/17/2019" "13:48" "right" 0 3373.104 1 "06/01/2014" "English" NA NA "female" "Pre" "PO" "Pred" "Old"
"E4eEjp8jdT9dLuiNCdUwCyceJ" 10 "3Pre2" "Peppa_Pig_will_send_the_hamster_a_toy" "Can_you_send_the_hamster_the_toy?" "left" "right" "pretest" "7/17/2019" "13:48" "left" 1 2336.104 1 "06/01/2014" "English" NA NA "female" "Pre" "PO" "Pred" "Old"
"eZ7ho2k5zltqLmcrTJh8e9MHq" 1 "2FillerPre2" "The_boy_will_put_the_train_in_the_box" "Can_you_put_the_train_in_the_box?" "right" "left" "pretest_filler" "7/1/2019" "11:41" "right" 1 6868.104 1 "21/6/15" "English" NA NA "male" "Post" "PO" "Pred" "Old"
"eZ7ho2k5zltqLmcrTJh8e9MHq" 2 "3FillerPre2" "The_girl_will_move_the_hat_to_the_table" "Can_you_move_the_hat_to_the_table?" "left" "right" "pretest_filler" "7/1/2019" "11:41" "left" 1 6633.104 1 "21/6/15" "English" NA NA "male" "Post" "PO" "Pred" "Old"
"eZ7ho2k5zltqLmcrTJh8e9MHq" 3 "2fillerpost2" "Boots_will_clean_the_chair_with_the_sponge" "Can_you_clean_the_chair_with_the_sponge?" "right" "left" "posttest_filler" "7/1/2019" "11:41" "right" 1 14708.104 1 "21/6/15" "English" NA NA "male" "Post" "PO" "Pred" "Old"
"eZ7ho2k5zltqLmcrTJh8e9MHq" 4 "3post2" "Boots_will_throw_the_giraffe_a_balloon" "Can_you_throw_the_giraffe_the_balloon?" "left" "right" "posttest" "7/1/2019" "11:41" "right" 0 1742.104 1 "21/6/15" "English" NA NA "male" "Post" "PO" "Pred" "Old"
"eZ7ho2k5zltqLmcrTJh8e9MHq" 5 "4Post2" "The_princess_will_send_the_lion_a_crocodile" "Can_you_send_the_lion_the_crocodile?" "right" "left" "posttest" "7/1/2019" "11:41" "right" 1 7030.104 1 "21/6/15" "English" NA NA "male" "Post" "PO" "Pred" "Old"
"eZ7ho2k5zltqLmcrTJh8e9MHq" 6 "6post2" "Dora_the_explorer_will_throw_the_puppy_a_hamster" "Can_you_throw_puppy_the_hamster?" "right" "left" "posttest" "7/1/2019" "11:41" "left" 0 7876.104 1 "21/6/15" "English" NA NA "male" "Post" "PO" "Pred" "Old"
"eZ7ho2k5zltqLmcrTJh8e9MHq" 7 "2post2" "The_girl_will_bring_the_horse_an_ice_cream" "Can_you_bring_the_horse_the_ice_cream?" "right" "left" "posttest" "7/1/2019" "11:41" "left" 0 2912.104 1 "21/6/15" "English" NA NA "male" "Post" "PO" "Pred" "Old"
"eZ7ho2k5zltqLmcrTJh8e9MHq" 8 "1fillerpost2" "The_princess_will_tickle_the_teddy_bear_with_the_feather" "Can_you_tickle_the_teddy_bear_with_the_feather?" "left" "right" "posttest_filler" "7/1/2019" "11:41" "left" 1 15854.104 1 "21/6/15" "English" NA NA "male" "Post" "PO" "Pred" "Old"
"eZ7ho2k5zltqLmcrTJh8e9MHq" 9 "1Post2" "The_boy_will_send_the_tiger_a_present" "Can_you_send_the_tiger_the_present?" "left" "right" "posttest" "7/1/2019" "11:41" "left" 1 2994.104 1 "21/6/15" "English" NA NA "male" "Post" "PO" "Pred" "Old"
"eZ7ho2k5zltqLmcrTJh8e9MHq" 10 "5post2" "The_prince_will_bring_the_turtle_a_cat" "Can_you_bring_the_turtle_the_cat?" "left" "right" "posttest" "7/1/2019" "11:41" "right" 0 2143.104 1 "21/6/15" "English" NA NA "male" "Post" "PO" "Pred" "Old"
"FdODjTefLNBHciMwmAY0fzy0s" 1 "2FillerPre2" "The_boy_will_put_the_train_in_the_box" "Can_you_put_the_train_in_the_box?" "right" "left" "pretest_filler" "7/18/2019" "13:12" "right" 1 3339.104 1 "10/05/15" "English" NA NA "female" "Post" "DO" "Pred" "Old"
"FdODjTefLNBHciMwmAY0fzy0s" 2 "3FillerPre2" "The_girl_will_move_the_hat_to_the_table" "Can_you_move_the_hat_to_the_table?" "left" "right" "pretest_filler" "7/18/2019" "13:12" "left" 1 2145.104 1 "10/05/15" "English" NA NA "female" "Post" "DO" "Pred" "Old"
"FdODjTefLNBHciMwmAY0fzy0s" 3 "4Post2" "The_princess_will_send_the_lion_a_crocodile" "Can_you_send_the_lion_the_crocodile?" "right" "left" "posttest" "7/18/2019" "13:12" "left" 0 15642.104 1 "10/05/15" "English" NA NA "female" "Post" "DO" "Pred" "Old"
"FdODjTefLNBHciMwmAY0fzy0s" 4 "1Post2" "The_boy_will_send_the_tiger_a_present" "Can_you_send_the_tiger_the_present?" "left" "right" "posttest" "7/18/2019" "13:12" "left" 1 4297.104 1 "10/05/15" "English" NA NA "female" "Post" "DO" "Pred" "Old"
"FdODjTefLNBHciMwmAY0fzy0s" 5 "3post2" "Boots_will_throw_the_giraffe_a_balloon" "Can_you_throw_the_giraffe_the_balloon?" "left" "right" "posttest" "7/18/2019" "13:12" "right" 0 10790.104 1 "10/05/15" "English" NA NA "female" "Post" "DO" "Pred" "Old"
"FdODjTefLNBHciMwmAY0fzy0s" 6 "2fillerpost2" "Boots_will_clean_the_chair_with_the_sponge" "Can_you_clean_the_chair_with_the_sponge?" "left" "right" "posttest_filler" "7/18/2019" "13:12" "left" 1 11451.104 2 "10/05/15" "English" NA NA "female" "Post" "DO" "Pred" "Old"
"FdODjTefLNBHciMwmAY0fzy0s" 7 "5post2" "The_prince_will_bring_the_turtle_a_cat" "Can_you_bring_the_turtle_the_cat?" "right" "left" "posttest" "7/18/2019" "13:12" "left" 0 2799.104 1 "10/05/15" "English" NA NA "female" "Post" "DO" "Pred" "Old"
"FdODjTefLNBHciMwmAY0fzy0s" 8 "1fillerpost2" "The_princess_will_tickle_the_teddy_bear_with_the_feather" "Can_you_tickle_the_teddy_bear_with_the_feather?" "right" "left" "posttest_filler" "7/18/2019" "13:12" "right" 1 7300.104 1 "10/05/15" "English" NA NA "female" "Post" "DO" "Pred" "Old"
"FdODjTefLNBHciMwmAY0fzy0s" 9 "6post2" "Dora_the_explorer_will_throw_the_puppy_a_hamster" "Can_you_throw_puppy_the_hamster?" "right" "left" "posttest" "7/18/2019" "13:12" "left" 0 6757.104 1 "10/05/15" "English" NA NA "female" "Post" "DO" "Pred" "Old"
"FdODjTefLNBHciMwmAY0fzy0s" 10 "2post2" "The_girl_will_bring_the_horse_an_ice_cream" "Can_you_bring_the_horse_the_ice_cream?" "left" "right" "posttest" "7/18/2019" "13:12" "left" 1 8400.104 1 "10/05/15" "English" NA NA "female" "Post" "DO" "Pred" "Old"
"FwqPAwsJHhtqk1alRgW3QGzE2" 1 "2FillerPre2" "The_boy_will_put_the_train_in_the_box" "Can_you_put_the_train_in_the_box?" "right" "left" "pretest_filler" "7/24/2019" "11:05" "right" 1 2674.104 1 "02/04/2015" "English" NA NA "male" "Post" "PO" "NonPred" "Old"
"FwqPAwsJHhtqk1alRgW3QGzE2" 2 "3FillerPre2" "The_girl_will_move_the_hat_to_the_table" "Can_you_move_the_hat_to_the_table?" "left" "right" "pretest_filler" "7/24/2019" "11:05" "left" 1 1848.104 1 "02/04/2015" "English" NA NA "male" "Post" "PO" "NonPred" "Old"
"FwqPAwsJHhtqk1alRgW3QGzE2" 3 "1fillerpost2" "The_princess_will_tickle_the_teddy_bear_with_the_feather" "Can_you_tickle_the_teddy_bear_with_the_feather?" "left" "right" "posttest_filler" "7/24/2019" "11:05" "left" 1 3963.104 1 "02/04/2015" "English" NA NA "male" "Post" "PO" "NonPred" "Old"
"FwqPAwsJHhtqk1alRgW3QGzE2" 4 "6post2" "Dora_the_explorer_will_throw_the_puppy_a_hamster" "Can_you_throw_puppy_the_hamster?" "left" "right" "posttest" "7/24/2019" "11:05" "left" 1 1279.104 1 "02/04/2015" "English" NA NA "male" "Post" "PO" "NonPred" "Old"
"FwqPAwsJHhtqk1alRgW3QGzE2" 5 "1Post2" "The_boy_will_send_the_tiger_a_present" "Can_you_send_the_tiger_the_present?" "left" "right" "posttest" "7/24/2019" "11:05" "left" 1 2581.104 1 "02/04/2015" "English" NA NA "male" "Post" "PO" "NonPred" "Old"
"FwqPAwsJHhtqk1alRgW3QGzE2" 6 "5post2" "The_prince_will_bring_the_turtle_a_cat" "Can_you_bring_the_turtle_the_cat?" "right" "left" "posttest" "7/24/2019" "11:05" "left" 0 4346.104 1 "02/04/2015" "English" NA NA "male" "Post" "PO" "NonPred" "Old"
"FwqPAwsJHhtqk1alRgW3QGzE2" 7 "3post2" "Boots_will_throw_the_giraffe_a_balloon" "Can_you_throw_the_giraffe_the_balloon?" "right" "left" "posttest" "7/24/2019" "11:05" "left" 0 2016.104 1 "02/04/2015" "English" NA NA "male" "Post" "PO" "NonPred" "Old"
"FwqPAwsJHhtqk1alRgW3QGzE2" 8 "4Post2" "The_princess_will_send_the_lion_a_crocodile" "Can_you_send_the_lion_the_crocodile?" "right" "left" "posttest" "7/24/2019" "11:05" "right" 1 1657.104 1 "02/04/2015" "English" NA NA "male" "Post" "PO" "NonPred" "Old"
"FwqPAwsJHhtqk1alRgW3QGzE2" 9 "2post2" "The_girl_will_bring_the_horse_an_ice_cream" "Can_you_bring_the_horse_the_ice_cream?" "right" "left" "posttest" "7/24/2019" "11:05" "right" 1 2213.104 1 "02/04/2015" "English" NA NA "male" "Post" "PO" "NonPred" "Old"
"FwqPAwsJHhtqk1alRgW3QGzE2" 10 "2fillerpost2" "Boots_will_clean_the_chair_with_the_sponge" "Can_you_clean_the_chair_with_the_sponge?" "left" "right" "posttest_filler" "7/24/2019" "11:05" "left" 1 4115.104 1 "02/04/2015" "English" NA NA "male" "Post" "PO" "NonPred" "Old"
"GQLgHmxXdeTrRxApGRccaywgx" 1 "2FillerPre2" "The_boy_will_put_the_train_in_the_box" "Can_you_put_the_train_in_the_box?" "right" "left" "pretest_filler" "6/25/2019" "09:21" "right" 1 2312.104 1 "7/9/14" "English" NA NA "male" "Pre" "PO" "NonPred" "Old"
"GQLgHmxXdeTrRxApGRccaywgx" 2 "3FillerPre2" "The_girl_will_move_the_hat_to_the_table" "Can_you_move_the_hat_to_the_table?" "left" "right" "pretest_filler" "6/25/2019" "09:21" "left" 1 2816.104 1 "7/9/14" "English" NA NA "male" "Pre" "PO" "NonPred" "Old"
"GQLgHmxXdeTrRxApGRccaywgx" 3 "6Pre2" "Emily_elephant_will_bring_the_mouse_a_rabbit" "Can_you_bring_the_mouse_the_rabbit?" "right" "left" "pretest" "6/25/2019" "09:21" "left" 0 2228.104 1 "7/9/14" "English" NA NA "male" "Pre" "PO" "NonPred" "Old"
"GQLgHmxXdeTrRxApGRccaywgx" 4 "1Pre2" "The_boy_will_bring_the_giraffe_a_cake" "Can_you_bring_the_giraffe_the_cake?" "right" "left" "pretest" "6/25/2019" "09:21" "left" 0 972.104 1 "7/9/14" "English" NA NA "male" "Pre" "PO" "NonPred" "Old"
"GQLgHmxXdeTrRxApGRccaywgx" 5 "3Pre2" "Peppa_Pig_will_send_the_hamster_a_toy" "Can_you_send_the_hamster_the_toy?" "left" "right" "pretest" "6/25/2019" "09:21" "right" 0 1865.104 1 "7/9/14" "English" NA NA "male" "Pre" "PO" "NonPred" "Old"
"GQLgHmxXdeTrRxApGRccaywgx" 6 "1FillerPre2" "Peppa_pig_will_bounce_the_ball_with_the_bat" "Can_you_bounce_the_ball_with_the_bat?" "right" "left" "pretest_filler" "6/25/2019" "09:21" "left" 0 1746.104 1 "7/9/14" "English" NA NA "male" "Pre" "PO" "NonPred" "Old"
"GQLgHmxXdeTrRxApGRccaywgx" 7 "4FillerPre2" "The_king_will_poke_the_jelly_with_the_fork" "Can_you_poke_the_jelly_with_the_fork?" "left" "right" "pretest_filler" "6/25/2019" "09:21" "left" 1 1099.104 1 "7/9/14" "English" NA NA "male" "Pre" "PO" "NonPred" "Old"
"GQLgHmxXdeTrRxApGRccaywgx" 8 "4Pre2" "The_king_will_throw_the_turtle_a_squirrel" "Can_you_throw_the_turtle_the_squirrel?" "left" "right" "pretest" "6/25/2019" "09:21" "right" 0 1843.104 1 "7/9/14" "English" NA NA "male" "Pre" "PO" "NonPred" "Old"
"GQLgHmxXdeTrRxApGRccaywgx" 9 "2Pre2" "The_girl_will_throw_the_elephant_a_clock" "Can_you_throw_the_elephant_the_clock?" "right" "left" "pretest" "6/25/2019" "09:21" "left" 0 2701.104 1 "7/9/14" "English" NA NA "male" "Pre" "PO" "NonPred" "Old"
"GQLgHmxXdeTrRxApGRccaywgx" 10 "5Pre2" "The_queen_will_send_the_monkey_a_horse" "Can_you_send_the_monkey_the_horse?" "left" "right" "pretest" "6/25/2019" "09:21" "right" 0 2991.104 1 "7/9/14" "English" NA NA "male" "Pre" "PO" "NonPred" "Old"
"H9yGpPYpoulJelMr19gxSWT9I" 1 "2FillerPre2" "The_boy_will_put_the_train_in_the_box" "Can_you_put_the_train_in_the_box?" "right" "left" "pretest_filler" "6/25/2019" "11:54" "right" 1 709.104 1 "20/2/15" "English" NA NA "female" "Post" "PO" "Pred" "Old"
"H9yGpPYpoulJelMr19gxSWT9I" 2 "3FillerPre2" "The_girl_will_move_the_hat_to_the_table" "Can_you_move_the_hat_to_the_table?" "left" "right" "pretest_filler" "6/25/2019" "11:54" "left" 1 1612.104 1 "20/2/15" "English" NA NA "female" "Post" "PO" "Pred" "Old"
"H9yGpPYpoulJelMr19gxSWT9I" 3 "6post2" "Dora_the_explorer_will_throw_the_puppy_a_hamster" "Can_you_throw_puppy_the_hamster?" "right" "left" "posttest" "6/25/2019" "11:54" "left" 0 8329.104 1 "20/2/15" "English" NA NA "female" "Post" "PO" "Pred" "Old"
"H9yGpPYpoulJelMr19gxSWT9I" 4 "2post2" "The_girl_will_bring_the_horse_an_ice_cream" "Can_you_bring_the_horse_the_ice_cream?" "right" "left" "posttest" "6/25/2019" "11:54" "left" 0 3561.104 1 "20/2/15" "English" NA NA "female" "Post" "PO" "Pred" "Old"
"H9yGpPYpoulJelMr19gxSWT9I" 5 "1Post2" "The_boy_will_send_the_tiger_a_present" "Can_you_send_the_tiger_the_present?" "right" "left" "posttest" "6/25/2019" "11:54" "left" 0 2394.104 1 "20/2/15" "English" NA NA "female" "Post" "PO" "Pred" "Old"
"H9yGpPYpoulJelMr19gxSWT9I" 6 "5post2" "The_prince_will_bring_the_turtle_a_cat" "Can_you_bring_the_turtle_the_cat?" "right" "left" "posttest" "6/25/2019" "11:54" "left" 0 2380.104 1 "20/2/15" "English" NA NA "female" "Post" "PO" "Pred" "Old"
"H9yGpPYpoulJelMr19gxSWT9I" 7 "1fillerpost2" "The_princess_will_tickle_the_teddy_bear_with_the_feather" "Can_you_tickle_the_teddy_bear_with_the_feather?" "left" "right" "posttest_filler" "6/25/2019" "11:54" "left" 1 3032.104 1 "20/2/15" "English" NA NA "female" "Post" "PO" "Pred" "Old"
"H9yGpPYpoulJelMr19gxSWT9I" 8 "2fillerpost2" "Boots_will_clean_the_chair_with_the_sponge" "Can_you_clean_the_chair_with_the_sponge?" "left" "right" "posttest_filler" "6/25/2019" "11:54" "left" 1 2170.104 1 "20/2/15" "English" NA NA "female" "Post" "PO" "Pred" "Old"
"H9yGpPYpoulJelMr19gxSWT9I" 9 "3post2" "Boots_will_throw_the_giraffe_a_balloon" "Can_you_throw_the_giraffe_the_balloon?" "left" "right" "posttest" "6/25/2019" "11:54" "right" 0 6636.104 1 "20/2/15" "English" NA NA "female" "Post" "PO" "Pred" "Old"
"H9yGpPYpoulJelMr19gxSWT9I" 10 "4Post2" "The_princess_will_send_the_lion_a_crocodile" "Can_you_send_the_lion_the_crocodile?" "left" "right" "posttest" "6/25/2019" "11:54" "right" 0 2646.104 1 "20/2/15" "English" NA NA "female" "Post" "PO" "Pred" "Old"
"i9PqXdc6jyqSFOa122A9aGWmQ" 1 "2FillerPre2" "The_boy_will_put_the_train_in_the_box" "Can_you_put_the_train_in_the_box?" "right" "left" "pretest_filler" "10/28/2019" "10:49" "right" 1 2542.104 1 "2015-07-26" "English" NA NA "female" "Post" "DO" "Pred" "Old"
"i9PqXdc6jyqSFOa122A9aGWmQ" 2 "3FillerPre2" "The_girl_will_move_the_hat_to_the_table" "Can_you_move_the_hat_to_the_table?" "left" "right" "pretest_filler" "10/28/2019" "10:49" "left" 1 2831.104 1 "2015-07-26" "English" NA NA "female" "Post" "DO" "Pred" "Old"
"i9PqXdc6jyqSFOa122A9aGWmQ" 3 "2post2" "The_girl_will_bring_the_horse_an_ice_cream" "Can_you_bring_the_horse_the_ice_cream?" "left" "right" "posttest" "10/28/2019" "10:49" "left" 1 2281.104 1 "2015-07-26" "English" NA NA "female" "Post" "DO" "Pred" "Old"
"i9PqXdc6jyqSFOa122A9aGWmQ" 4 "6post2" "Dora_the_explorer_will_throw_the_puppy_a_hamster" "Can_you_throw_puppy_the_hamster?" "left" "right" "posttest" "10/28/2019" "10:49" "left" 1 1390.104 1 "2015-07-26" "English" NA NA "female" "Post" "DO" "Pred" "Old"
"i9PqXdc6jyqSFOa122A9aGWmQ" 5 "2fillerpost2" "Boots_will_clean_the_chair_with_the_sponge" "Can_you_clean_the_chair_with_the_sponge?" "right" "left" "posttest_filler" "10/28/2019" "10:49" "right" 1 4097.104 1 "2015-07-26" "English" NA NA "female" "Post" "DO" "Pred" "Old"
"i9PqXdc6jyqSFOa122A9aGWmQ" 6 "1Post2" "The_boy_will_send_the_tiger_a_present" "Can_you_send_the_tiger_the_present?" "right" "left" "posttest" "10/28/2019" "10:49" "right" 1 995.104 1 "2015-07-26" "English" NA NA "female" "Post" "DO" "Pred" "Old"
"i9PqXdc6jyqSFOa122A9aGWmQ" 7 "5post2" "The_prince_will_bring_the_turtle_a_cat" "Can_you_bring_the_turtle_the_cat?" "right" "left" "posttest" "10/28/2019" "10:49" "right" 1 1437.104 1 "2015-07-26" "English" NA NA "female" "Post" "DO" "Pred" "Old"
"i9PqXdc6jyqSFOa122A9aGWmQ" 8 "4Post2" "The_princess_will_send_the_lion_a_crocodile" "Can_you_send_the_lion_the_crocodile?" "left" "right" "posttest" "10/28/2019" "10:49" "left" 1 1763.104 1 "2015-07-26" "English" NA NA "female" "Post" "DO" "Pred" "Old"
"i9PqXdc6jyqSFOa122A9aGWmQ" 9 "3post2" "Boots_will_throw_the_giraffe_a_balloon" "Can_you_throw_the_giraffe_the_balloon?" "left" "right" "posttest" "10/28/2019" "10:49" "left" 1 811.104 1 "2015-07-26" "English" NA NA "female" "Post" "DO" "Pred" "Old"
"i9PqXdc6jyqSFOa122A9aGWmQ" 10 "1fillerpost2" "The_princess_will_tickle_the_teddy_bear_with_the_feather" "Can_you_tickle_the_teddy_bear_with_the_feather?" "right" "left" "posttest_filler" "10/28/2019" "10:49" "right" 1 2830.104 1 "2015-07-26" "English" NA NA "female" "Post" "DO" "Pred" "Old"
"IJRTd7WULy3UcrqSAj58fK5Hk" 1 "2FillerPre2" "The_boy_will_put_the_train_in_the_box" "Can_you_put_the_train_in_the_box?" "right" "left" "pretest_filler" "7/18/2019" "14:23" "right" 1 6484.104 1 "02/10/14" "English" NA NA "female" "Post" "PO" "NonPred" "Old"
"IJRTd7WULy3UcrqSAj58fK5Hk" 2 "3FillerPre2" "The_girl_will_move_the_hat_to_the_table" "Can_you_move_the_hat_to_the_table?" "left" "right" "pretest_filler" "7/18/2019" "14:23" "left" 1 11547.104 1 "02/10/14" "English" NA NA "female" "Post" "PO" "NonPred" "Old"
"IJRTd7WULy3UcrqSAj58fK5Hk" 3 "4Post2" "The_princess_will_send_the_lion_a_crocodile" "Can_you_send_the_lion_the_crocodile?" "right" "left" "posttest" "7/18/2019" "14:23" "right" 1 11389.104 1 "02/10/14" "English" NA NA "female" "Post" "PO" "NonPred" "Old"
"IJRTd7WULy3UcrqSAj58fK5Hk" 4 "5post2" "The_prince_will_bring_the_turtle_a_cat" "Can_you_bring_the_turtle_the_cat?" "right" "left" "posttest" "7/18/2019" "14:23" "right" 1 3174.104 1 "02/10/14" "English" NA NA "female" "Post" "PO" "NonPred" "Old"
"IJRTd7WULy3UcrqSAj58fK5Hk" 5 "2post2" "The_girl_will_bring_the_horse_an_ice_cream" "Can_you_bring_the_horse_the_ice_cream?" "left" "right" "posttest" "7/18/2019" "14:23" "right" 0 3283.104 1 "02/10/14" "English" NA NA "female" "Post" "PO" "NonPred" "Old"
"IJRTd7WULy3UcrqSAj58fK5Hk" 6 "1Post2" "The_boy_will_send_the_tiger_a_present" "Can_you_send_the_tiger_the_present?" "right" "left" "posttest" "7/18/2019" "14:23" "right" 1 2936.104 1 "02/10/14" "English" NA NA "female" "Post" "PO" "NonPred" "Old"
"IJRTd7WULy3UcrqSAj58fK5Hk" 7 "6post2" "Dora_the_explorer_will_throw_the_puppy_a_hamster" "Can_you_throw_puppy_the_hamster?" "left" "right" "posttest" "7/18/2019" "14:23" "right" 0 2349.104 1 "02/10/14" "English" NA NA "female" "Post" "PO" "NonPred" "Old"
"IJRTd7WULy3UcrqSAj58fK5Hk" 8 "3post2" "Boots_will_throw_the_giraffe_a_balloon" "Can_you_throw_the_giraffe_the_balloon?" "left" "right" "posttest" "7/18/2019" "14:23" "left" 1 13703.104 1 "02/10/14" "English" NA NA "female" "Post" "PO" "NonPred" "Old"
"IJRTd7WULy3UcrqSAj58fK5Hk" 9 "2fillerpost2" "Boots_will_clean_the_chair_with_the_sponge" "Can_you_clean_the_chair_with_the_sponge?" "left" "right" "posttest_filler" "7/18/2019" "14:23" "left" 1 3039.104 1 "02/10/14" "English" NA NA "female" "Post" "PO" "NonPred" "Old"
"IJRTd7WULy3UcrqSAj58fK5Hk" 10 "1fillerpost2" "The_princess_will_tickle_the_teddy_bear_with_the_feather" "Can_you_tickle_the_teddy_bear_with_the_feather?" "right" "left" "posttest_filler" "7/18/2019" "14:23" "right" 1 2644.104 1 "02/10/14" "English" NA NA "female" "Post" "PO" "NonPred" "Old"
"iLumJFeKJT74QSXxlJLJx63CE" 1 "2FillerPre2" "The_boy_will_put_the_train_in_the_box" "Can_you_put_the_train_in_the_box?" "right" "left" "pretest_filler" "7/18/2019" "11:09" "right" 1 1803.104 1 "25/07/15" "English" NA NA "female" "Post" "PO" "Pred" "Old"
"iLumJFeKJT74QSXxlJLJx63CE" 2 "3FillerPre2" "The_girl_will_move_the_hat_to_the_table" "Can_you_move_the_hat_to_the_table?" "left" "right" "pretest_filler" "7/18/2019" "11:09" "left" 1 1466.104 1 "25/07/15" "English" NA NA "female" "Post" "PO" "Pred" "Old"
"iLumJFeKJT74QSXxlJLJx63CE" 3 "1Post2" "The_boy_will_send_the_tiger_a_present" "Can_you_send_the_tiger_the_present?" "right" "left" "posttest" "7/18/2019" "11:09" "left" 0 1803.104 1 "25/07/15" "English" NA NA "female" "Post" "PO" "Pred" "Old"
"iLumJFeKJT74QSXxlJLJx63CE" 4 "2fillerpost2" "Boots_will_clean_the_chair_with_the_sponge" "Can_you_clean_the_chair_with_the_sponge?" "left" "right" "posttest_filler" "7/18/2019" "11:09" "left" 1 3445.104 1 "25/07/15" "English" NA NA "female" "Post" "PO" "Pred" "Old"
"iLumJFeKJT74QSXxlJLJx63CE" 5 "5post2" "The_prince_will_bring_the_turtle_a_cat" "Can_you_bring_the_turtle_the_cat?" "left" "right" "posttest" "7/18/2019" "11:09" "right" 0 3425.104 1 "25/07/15" "English" NA NA "female" "Post" "PO" "Pred" "Old"
"iLumJFeKJT74QSXxlJLJx63CE" 6 "6post2" "Dora_the_explorer_will_throw_the_puppy_a_hamster" "Can_you_throw_puppy_the_hamster?" "left" "right" "posttest" "7/18/2019" "11:09" "right" 0 1872.104 1 "25/07/15" "English" NA NA "female" "Post" "PO" "Pred" "Old"
"iLumJFeKJT74QSXxlJLJx63CE" 7 "3post2" "Boots_will_throw_the_giraffe_a_balloon" "Can_you_throw_the_giraffe_the_balloon?" "right" "left" "posttest" "7/18/2019" "11:09" "left" 0 1396.104 1 "25/07/15" "English" NA NA "female" "Post" "PO" "Pred" "Old"
"iLumJFeKJT74QSXxlJLJx63CE" 8 "2post2" "The_girl_will_bring_the_horse_an_ice_cream" "Can_you_bring_the_horse_the_ice_cream?" "right" "left" "posttest" "7/18/2019" "11:09" "left" 0 1429.104 1 "25/07/15" "English" NA NA "female" "Post" "PO" "Pred" "Old"
"iLumJFeKJT74QSXxlJLJx63CE" 9 "1fillerpost2" "The_princess_will_tickle_the_teddy_bear_with_the_feather" "Can_you_tickle_the_teddy_bear_with_the_feather?" "left" "right" "posttest_filler" "7/18/2019" "11:09" "left" 1 2636.104 1 "25/07/15" "English" NA NA "female" "Post" "PO" "Pred" "Old"
"iLumJFeKJT74QSXxlJLJx63CE" 10 "4Post2" "The_princess_will_send_the_lion_a_crocodile" "Can_you_send_the_lion_the_crocodile?" "right" "left" "posttest" "7/18/2019" "11:09" "left" 0 3236.104 1 "25/07/15" "English" NA NA "female" "Post" "PO" "Pred" "Old"
"isclaECAm1tGFGQGrJ6XxNJpp" 1 "2FillerPre2" "The_boy_will_put_the_train_in_the_box" "Can_you_put_the_train_in_the_box?" "right" "left" "pretest_filler" "6/25/2019" "11:32" "right" 1 5452.104 1 "03/06/2015" "English" NA NA "female" "Pre" "PO" "Pred" "Old"
"isclaECAm1tGFGQGrJ6XxNJpp" 2 "3FillerPre2" "The_girl_will_move_the_hat_to_the_table" "Can_you_move_the_hat_to_the_table?" "left" "right" "pretest_filler" "6/25/2019" "11:32" "left" 1 4033.104 1 "03/06/2015" "English" NA NA "female" "Pre" "PO" "Pred" "Old"
"isclaECAm1tGFGQGrJ6XxNJpp" 3 "1Pre2" "The_boy_will_bring_the_giraffe_a_cake" "Can_you_bring_the_giraffe_the_cake?" "right" "left" "pretest" "6/25/2019" "11:32" "left" 0 2701.104 1 "03/06/2015" "English" NA NA "female" "Pre" "PO" "Pred" "Old"
"isclaECAm1tGFGQGrJ6XxNJpp" 4 "4FillerPre2" "The_king_will_poke_the_jelly_with_the_fork" "Can_you_poke_the_jelly_with_the_fork?" "left" "right" "pretest_filler" "6/25/2019" "11:32" "left" 1 7249.104 1 "03/06/2015" "English" NA NA "female" "Pre" "PO" "Pred" "Old"
"isclaECAm1tGFGQGrJ6XxNJpp" 5 "6Pre2" "Emily_elephant_will_bring_the_mouse_a_rabbit" "Can_you_bring_the_mouse_the_rabbit?" "left" "right" "pretest" "6/25/2019" "11:32" "right" 0 5074.104 1 "03/06/2015" "English" NA NA "female" "Pre" "PO" "Pred" "Old"
"isclaECAm1tGFGQGrJ6XxNJpp" 6 "3Pre2" "Peppa_Pig_will_send_the_hamster_a_toy" "Can_you_send_the_hamster_the_toy?" "right" "left" "pretest" "6/25/2019" "11:32" "right" 1 5216.104 1 "03/06/2015" "English" NA NA "female" "Pre" "PO" "Pred" "Old"
"isclaECAm1tGFGQGrJ6XxNJpp" 7 "4Pre2" "The_king_will_throw_the_turtle_a_squirrel" "Can_you_throw_the_turtle_the_squirrel?" "left" "right" "pretest" "6/25/2019" "11:32" "right" 0 2840.104 1 "03/06/2015" "English" NA NA "female" "Pre" "PO" "Pred" "Old"
"isclaECAm1tGFGQGrJ6XxNJpp" 8 "2Pre2" "The_girl_will_throw_the_elephant_a_clock" "Can_you_throw_the_elephant_the_clock?" "right" "left" "pretest" "6/25/2019" "11:32" "left" 0 6068.104 1 "03/06/2015" "English" NA NA "female" "Pre" "PO" "Pred" "Old"
"isclaECAm1tGFGQGrJ6XxNJpp" 9 "5Pre2" "The_queen_will_send_the_monkey_a_horse" "Can_you_send_the_monkey_the_horse?" "right" "left" "pretest" "6/25/2019" "11:32" "left" 0 3839.104 1 "03/06/2015" "English" NA NA "female" "Pre" "PO" "Pred" "Old"
"isclaECAm1tGFGQGrJ6XxNJpp" 10 "1FillerPre2" "Peppa_pig_will_bounce_the_ball_with_the_bat" "Can_you_bounce_the_ball_with_the_bat?" "left" "right" "pretest_filler" "6/25/2019" "11:32" "right" 0 7619.104 1 "03/06/2015" "English" NA NA "female" "Pre" "PO" "Pred" "Old"
"IubJKuZAYluSUxIEddzxWBXf7" 1 "2FillerPre2" "The_boy_will_put_the_train_in_the_box" "Can_you_put_the_train_in_the_box?" "right" "left" "pretest_filler" "7/2/2019" "11:32" "right" 1 1236.104 1 "06/11/14" "English" NA NA "female" "Pre" "PO" "Pred" "Old"
"IubJKuZAYluSUxIEddzxWBXf7" 2 "3FillerPre2" "The_girl_will_move_the_hat_to_the_table" "Can_you_move_the_hat_to_the_table?" "left" "right" "pretest_filler" "7/2/2019" "11:32" "left" 1 1546.104 1 "06/11/14" "English" NA NA "female" "Pre" "PO" "Pred" "Old"
"IubJKuZAYluSUxIEddzxWBXf7" 3 "1Pre2" "The_boy_will_bring_the_giraffe_a_cake" "Can_you_bring_the_giraffe_the_cake?" "right" "left" "pretest" "7/2/2019" "11:32" "right" 1 3448.104 1 "06/11/14" "English" NA NA "female" "Pre" "PO" "Pred" "Old"
"IubJKuZAYluSUxIEddzxWBXf7" 4 "6Pre2" "Emily_elephant_will_bring_the_mouse_a_rabbit" "Can_you_bring_the_mouse_the_rabbit?" "left" "right" "pretest" "7/2/2019" "11:32" "right" 0 3050.104 1 "06/11/14" "English" NA NA "female" "Pre" "PO" "Pred" "Old"
"IubJKuZAYluSUxIEddzxWBXf7" 5 "4Pre2" "The_king_will_throw_the_turtle_a_squirrel" "Can_you_throw_the_turtle_the_squirrel?" "left" "right" "pretest" "7/2/2019" "11:32" "right" 0 1647.104 1 "06/11/14" "English" NA NA "female" "Pre" "PO" "Pred" "Old"
"IubJKuZAYluSUxIEddzxWBXf7" 6 "3Pre2" "Peppa_Pig_will_send_the_hamster_a_toy" "Can_you_send_the_hamster_the_toy?" "left" "right" "pretest" "7/2/2019" "11:32" "right" 0 3294.104 1 "06/11/14" "English" NA NA "female" "Pre" "PO" "Pred" "Old"
"IubJKuZAYluSUxIEddzxWBXf7" 7 "4FillerPre2" "The_king_will_poke_the_jelly_with_the_fork" "Can_you_poke_the_jelly_with_the_fork?" "left" "right" "pretest_filler" "7/2/2019" "11:32" "left" 1 2112.104 1 "06/11/14" "English" NA NA "female" "Pre" "PO" "Pred" "Old"
"IubJKuZAYluSUxIEddzxWBXf7" 8 "5Pre2" "The_queen_will_send_the_monkey_a_horse" "Can_you_send_the_monkey_the_horse?" "right" "left" "pretest" "7/2/2019" "11:32" "left" 0 1735.104 1 "06/11/14" "English" NA NA "female" "Pre" "PO" "Pred" "Old"
"IubJKuZAYluSUxIEddzxWBXf7" 9 "2Pre2" "The_girl_will_throw_the_elephant_a_clock" "Can_you_throw_the_elephant_the_clock?" "right" "left" "pretest" "7/2/2019" "11:32" "left" 0 4563.104 1 "06/11/14" "English" NA NA "female" "Pre" "PO" "Pred" "Old"
"IubJKuZAYluSUxIEddzxWBXf7" 10 "1FillerPre2" "Peppa_pig_will_bounce_the_ball_with_the_bat" "Can_you_bounce_the_ball_with_the_bat?" "right" "left" "pretest_filler" "7/2/2019" "11:32" "right" 1 1447.104 1 "06/11/14" "English" NA NA "female" "Pre" "PO" "Pred" "Old"
"kS7hiMfISjB4Le7mAvmM2ifmU" 1 "2FillerPre2" "The_boy_will_put_the_train_in_the_box" "Can_you_put_the_train_in_the_box?" "right" "left" "pretest_filler" "7/18/2019" "10:50" "right" 1 2515.104 1 "20/04/15" "English/ German" NA NA "female" "Pre" "PO" "NonPred" "Old"
"kS7hiMfISjB4Le7mAvmM2ifmU" 2 "3FillerPre2" "The_girl_will_move_the_hat_to_the_table" "Can_you_move_the_hat_to_the_table?" "left" "right" "pretest_filler" "7/18/2019" "10:50" "left" 1 3642.104 1 "20/04/15" "English/ German" NA NA "female" "Pre" "PO" "NonPred" "Old"
"kS7hiMfISjB4Le7mAvmM2ifmU" 3 "3Pre2" "Peppa_Pig_will_send_the_hamster_a_toy" "Can_you_send_the_hamster_the_toy?" "left" "right" "pretest" "7/18/2019" "10:50" "right" 0 2556.104 1 "20/04/15" "English/ German" NA NA "female" "Pre" "PO" "NonPred" "Old"
"kS7hiMfISjB4Le7mAvmM2ifmU" 4 "2Pre2" "The_girl_will_throw_the_elephant_a_clock" "Can_you_throw_the_elephant_the_clock?" "left" "right" "pretest" "7/18/2019" "10:50" "right" 0 2854.104 1 "20/04/15" "English/ German" NA NA "female" "Pre" "PO" "NonPred" "Old"
"kS7hiMfISjB4Le7mAvmM2ifmU" 5 "4Pre2" "The_king_will_throw_the_turtle_a_squirrel" "Can_you_throw_the_turtle_the_squirrel?" "right" "left" "pretest" "7/18/2019" "10:50" "left" 0 1050.104 1 "20/04/15" "English/ German" NA NA "female" "Pre" "PO" "NonPred" "Old"
"kS7hiMfISjB4Le7mAvmM2ifmU" 6 "5Pre2" "The_queen_will_send_the_monkey_a_horse" "Can_you_send_the_monkey_the_horse?" "right" "left" "pretest" "7/18/2019" "10:50" "left" 0 2406.104 1 "20/04/15" "English/ German" NA NA "female" "Pre" "PO" "NonPred" "Old"
"kS7hiMfISjB4Le7mAvmM2ifmU" 7 "1FillerPre2" "Peppa_pig_will_bounce_the_ball_with_the_bat" "Can_you_bounce_the_ball_with_the_bat?" "left" "right" "pretest_filler" "7/18/2019" "10:50" "right" 0 1823.104 1 "20/04/15" "English/ German" NA NA "female" "Pre" "PO" "NonPred" "Old"
"kS7hiMfISjB4Le7mAvmM2ifmU" 8 "4FillerPre2" "The_king_will_poke_the_jelly_with_the_fork" "Can_you_poke_the_jelly_with_the_fork?" "right" "left" "pretest_filler" "7/18/2019" "10:50" "right" 1 2715.104 1 "20/04/15" "English/ German" NA NA "female" "Pre" "PO" "NonPred" "Old"
"kS7hiMfISjB4Le7mAvmM2ifmU" 9 "6Pre2" "Emily_elephant_will_bring_the_mouse_a_rabbit" "Can_you_bring_the_mouse_the_rabbit?" "left" "right" "pretest" "7/18/2019" "10:50" "right" 0 1892.104 1 "20/04/15" "English/ German" NA NA "female" "Pre" "PO" "NonPred" "Old"
"kS7hiMfISjB4Le7mAvmM2ifmU" 10 "1Pre2" "The_boy_will_bring_the_giraffe_a_cake" "Can_you_bring_the_giraffe_the_cake?" "right" "left" "pretest" "7/18/2019" "10:50" "right" 1 1343.104 1 "20/04/15" "English/ German" NA NA "female" "Pre" "PO" "NonPred" "Old"
"kYyYeL2XWRmISezkKv8fgKLPi" 1 "2FillerPre2" "The_boy_will_put_the_train_in_the_box" "Can_you_put_the_train_in_the_box?" "right" "left" "pretest_filler" "7/8/2019" "09:39" "right" 1 5584.104 1 "07/11/14" "English" NA NA "female" "Pre" "PO" "NonPred" "Old"
"kYyYeL2XWRmISezkKv8fgKLPi" 2 "3FillerPre2" "The_girl_will_move_the_hat_to_the_table" "Can_you_move_the_hat_to_the_table?" "left" "right" "pretest_filler" "7/8/2019" "09:39" "left" 1 2637.104 1 "07/11/14" "English" NA NA "female" "Pre" "PO" "NonPred" "Old"
"kYyYeL2XWRmISezkKv8fgKLPi" 3 "6Pre2" "Emily_elephant_will_bring_the_mouse_a_rabbit" "Can_you_bring_the_mouse_the_rabbit?" "right" "left" "pretest" "7/8/2019" "09:39" "left" 0 3648.104 1 "07/11/14" "English" NA NA "female" "Pre" "PO" "NonPred" "Old"
"kYyYeL2XWRmISezkKv8fgKLPi" 4 "4FillerPre2" "The_king_will_poke_the_jelly_with_the_fork" "Can_you_poke_the_jelly_with_the_fork?" "left" "right" "pretest_filler" "7/8/2019" "09:39" "right" 0 1852.104 1 "07/11/14" "English" NA NA "female" "Pre" "PO" "NonPred" "Old"
"kYyYeL2XWRmISezkKv8fgKLPi" 5 "3Pre2" "Peppa_Pig_will_send_the_hamster_a_toy" "Can_you_send_the_hamster_the_toy?" "right" "left" "pretest" "7/8/2019" "09:39" "left" 0 20375.104 1 "07/11/14" "English" NA NA "female" "Pre" "PO" "NonPred" "Old"
"kYyYeL2XWRmISezkKv8fgKLPi" 6 "1FillerPre2" "Peppa_pig_will_bounce_the_ball_with_the_bat" "Can_you_bounce_the_ball_with_the_bat?" "left" "right" "pretest_filler" "7/8/2019" "09:39" "right" 0 3168.104 1 "07/11/14" "English" NA NA "female" "Pre" "PO" "NonPred" "Old"
"kYyYeL2XWRmISezkKv8fgKLPi" 7 "2Pre2" "The_girl_will_throw_the_elephant_a_clock" "Can_you_throw_the_elephant_the_clock?" "right" "left" "pretest" "7/8/2019" "09:39" "left" 0 5152.104 1 "07/11/14" "English" NA NA "female" "Pre" "PO" "NonPred" "Old"
"kYyYeL2XWRmISezkKv8fgKLPi" 8 "5Pre2" "The_queen_will_send_the_monkey_a_horse" "Can_you_send_the_monkey_the_horse?" "left" "right" "pretest" "7/8/2019" "09:39" "right" 0 2646.104 1 "07/11/14" "English" NA NA "female" "Pre" "PO" "NonPred" "Old"
"kYyYeL2XWRmISezkKv8fgKLPi" 9 "1Pre2" "The_boy_will_bring_the_giraffe_a_cake" "Can_you_bring_the_giraffe_the_cake?" "right" "left" "pretest" "7/8/2019" "09:39" "left" 0 10814.104 1 "07/11/14" "English" NA NA "female" "Pre" "PO" "NonPred" "Old"
"kYyYeL2XWRmISezkKv8fgKLPi" 10 "4Pre2" "The_king_will_throw_the_turtle_a_squirrel" "Can_you_throw_the_turtle_the_squirrel?" "left" "right" "pretest" "7/8/2019" "09:39" "right" 0 8880.104 1 "07/11/14" "English" NA NA "female" "Pre" "PO" "NonPred" "Old"
"ls4zgdQsgZ4Ay2nkrzQkj5Wo0" 1 "2FillerPre2" "The_boy_will_put_the_train_in_the_box" "Can_you_put_the_train_in_the_box?" "right" "left" "pretest_filler" "06/10/2019" "11:21" "right" 1 4273.104 1 "04/01/2015" "Flemish" "English" NA "female" "Post" "PO" "Pred" "Old"
"ls4zgdQsgZ4Ay2nkrzQkj5Wo0" 2 "3FillerPre2" "The_girl_will_move_the_hat_to_the_table" "Can_you_move_the_hat_to_the_table?" "left" "right" "pretest_filler" "06/10/2019" "11:21" "left" 1 2521.104 1 "04/01/2015" "Flemish" "English" NA "female" "Post" "PO" "Pred" "Old"
"ls4zgdQsgZ4Ay2nkrzQkj5Wo0" 3 "2post2" "The_girl_will_bring_the_horse_an_ice_cream" "Can_you_bring_the_horse_the_ice_cream?" "left" "right" "posttest" "06/10/2019" "11:21" "right" 0 3080.104 1 "04/01/2015" "Flemish" "English" NA "female" "Post" "PO" "Pred" "Old"
"ls4zgdQsgZ4Ay2nkrzQkj5Wo0" 4 "2fillerpost2" "Boots_will_clean_the_chair_with_the_sponge" "Can_you_clean_the_chair_with_the_sponge?" "right" "left" "posttest_filler" "06/10/2019" "11:21" "left" 0 4039.104 1 "04/01/2015" "Flemish" "English" NA "female" "Post" "PO" "Pred" "Old"
"ls4zgdQsgZ4Ay2nkrzQkj5Wo0" 5 "4Post2" "The_princess_will_send_the_lion_a_crocodile" "Can_you_send_the_lion_the_crocodile?" "left" "right" "posttest" "06/10/2019" "11:21" "right" 0 3766.104 1 "04/01/2015" "Flemish" "English" NA "female" "Post" "PO" "Pred" "Old"
"ls4zgdQsgZ4Ay2nkrzQkj5Wo0" 6 "3post2" "Boots_will_throw_the_giraffe_a_balloon" "Can_you_throw_the_giraffe_the_balloon?" "right" "left" "posttest" "06/10/2019" "11:21" "left" 0 2826.104 1 "04/01/2015" "Flemish" "English" NA "female" "Post" "PO" "Pred" "Old"
"ls4zgdQsgZ4Ay2nkrzQkj5Wo0" 7 "1fillerpost2" "The_princess_will_tickle_the_teddy_bear_with_the_feather" "Can_you_tickle_the_teddy_bear_with_the_feather?" "left" "right" "posttest_filler" "06/10/2019" "11:21" "right" 0 3578.104 1 "04/01/2015" "Flemish" "English" NA "female" "Post" "PO" "Pred" "Old"
"ls4zgdQsgZ4Ay2nkrzQkj5Wo0" 8 "6post2" "Dora_the_explorer_will_throw_the_puppy_a_hamster" "Can_you_throw_puppy_the_hamster?" "right" "left" "posttest" "06/10/2019" "11:21" "right" 1 4664.104 1 "04/01/2015" "Flemish" "English" NA "female" "Post" "PO" "Pred" "Old"
"ls4zgdQsgZ4Ay2nkrzQkj5Wo0" 9 "5post2" "The_prince_will_bring_the_turtle_a_cat" "Can_you_bring_the_turtle_the_cat?" "right" "left" "posttest" "06/10/2019" "11:21" "left" 0 2471.104 1 "04/01/2015" "Flemish" "English" NA "female" "Post" "PO" "Pred" "Old"
"ls4zgdQsgZ4Ay2nkrzQkj5Wo0" 10 "1Post2" "The_boy_will_send_the_tiger_a_present" "Can_you_send_the_tiger_the_present?" "left" "right" "posttest" "06/10/2019" "11:21" "right" 0 2177.104 1 "04/01/2015" "Flemish" "English" NA "female" "Post" "PO" "Pred" "Old"
"mADcRFAqiA2VCWmdKrjXLNlRi" 1 "2FillerPre2" "The_boy_will_put_the_train_in_the_box" "Can_you_put_the_train_in_the_box?" "right" "left" "pretest_filler" "7/17/2019" "09:55" "right" 1 6356.104 1 "24/04/15" "English" NA NA "male" "Pre" "PO" "Pred" "Old"
"mADcRFAqiA2VCWmdKrjXLNlRi" 2 "3FillerPre2" "The_girl_will_move_the_hat_to_the_table" "Can_you_move_the_hat_to_the_table?" "left" "right" "pretest_filler" "7/17/2019" "09:55" "left" 1 1346.104 1 "24/04/15" "English" NA NA "male" "Pre" "PO" "Pred" "Old"
"mADcRFAqiA2VCWmdKrjXLNlRi" 3 "4FillerPre2" "The_king_will_poke_the_jelly_with_the_fork" "Can_you_poke_the_jelly_with_the_fork?" "right" "left" "pretest_filler" "7/17/2019" "09:55" "right" 1 1329.104 1 "24/04/15" "English" NA NA "male" "Pre" "PO" "Pred" "Old"
"mADcRFAqiA2VCWmdKrjXLNlRi" 4 "1FillerPre2" "Peppa_pig_will_bounce_the_ball_with_the_bat" "Can_you_bounce_the_ball_with_the_bat?" "left" "right" "pretest_filler" "7/17/2019" "09:55" "right" 0 6212.104 1 "24/04/15" "English" NA NA "male" "Pre" "PO" "Pred" "Old"
"mADcRFAqiA2VCWmdKrjXLNlRi" 5 "5Pre2" "The_queen_will_send_the_monkey_a_horse" "Can_you_send_the_monkey_the_horse?" "right" "left" "pretest" "7/17/2019" "09:55" "left" 0 4713.104 1 "24/04/15" "English" NA NA "male" "Pre" "PO" "Pred" "Old"
"mADcRFAqiA2VCWmdKrjXLNlRi" 6 "3Pre2" "Peppa_Pig_will_send_the_hamster_a_toy" "Can_you_send_the_hamster_the_toy?" "left" "right" "pretest" "7/17/2019" "09:55" "right" 0 4545.104 1 "24/04/15" "English" NA NA "male" "Pre" "PO" "Pred" "Old"
"mADcRFAqiA2VCWmdKrjXLNlRi" 7 "1Pre2" "The_boy_will_bring_the_giraffe_a_cake" "Can_you_bring_the_giraffe_the_cake?" "right" "left" "pretest" "7/17/2019" "09:55" "left" 0 1136.104 1 "24/04/15" "English" NA NA "male" "Pre" "PO" "Pred" "Old"
"mADcRFAqiA2VCWmdKrjXLNlRi" 8 "6Pre2" "Emily_elephant_will_bring_the_mouse_a_rabbit" "Can_you_bring_the_mouse_the_rabbit?" "left" "right" "pretest" "7/17/2019" "09:55" "right" 0 1810.104 1 "24/04/15" "English" NA NA "male" "Pre" "PO" "Pred" "Old"
"mADcRFAqiA2VCWmdKrjXLNlRi" 9 "2Pre2" "The_girl_will_throw_the_elephant_a_clock" "Can_you_throw_the_elephant_the_clock?" "right" "left" "pretest" "7/17/2019" "09:55" "right" 1 3346.104 1 "24/04/15" "English" NA NA "male" "Pre" "PO" "Pred" "Old"
"mADcRFAqiA2VCWmdKrjXLNlRi" 10 "4Pre2" "The_king_will_throw_the_turtle_a_squirrel" "Can_you_throw_the_turtle_the_squirrel?" "left" "right" "pretest" "7/17/2019" "09:55" "left" 1 1257.104 1 "24/04/15" "English" NA NA "male" "Pre" "PO" "Pred" "Old"
"mAHHSzVZTjvhQSUAEWxAxdAgm" 1 "2FillerPre2" "The_boy_will_put_the_train_in_the_box" "Can_you_put_the_train_in_the_box?" "right" "left" "pretest_filler" "7/17/2019" "09:55" "right" 1 2874.104 1 "09/07/15" "English" NA NA "female" "Post" "PO" "Pred" "Old"
"mAHHSzVZTjvhQSUAEWxAxdAgm" 2 "3FillerPre2" "The_girl_will_move_the_hat_to_the_table" "Can_you_move_the_hat_to_the_table?" "left" "right" "pretest_filler" "7/17/2019" "09:55" "left" 1 3132.104 1 "09/07/15" "English" NA NA "female" "Post" "PO" "Pred" "Old"
"mAHHSzVZTjvhQSUAEWxAxdAgm" 3 "6post2" "Dora_the_explorer_will_throw_the_puppy_a_hamster" "Can_you_throw_puppy_the_hamster?" "right" "left" "posttest" "7/17/2019" "09:55" "left" 0 1174.104 1 "09/07/15" "English" NA NA "female" "Post" "PO" "Pred" "Old"
"mAHHSzVZTjvhQSUAEWxAxdAgm" 4 "2fillerpost2" "Boots_will_clean_the_chair_with_the_sponge" "Can_you_clean_the_chair_with_the_sponge?" "right" "left" "posttest_filler" "7/17/2019" "09:55" "right" 1 7712.104 1 "09/07/15" "English" NA NA "female" "Post" "PO" "Pred" "Old"
"mAHHSzVZTjvhQSUAEWxAxdAgm" 5 "1Post2" "The_boy_will_send_the_tiger_a_present" "Can_you_send_the_tiger_the_present?" "left" "right" "posttest" "7/17/2019" "09:55" "left" 1 1798.104 1 "09/07/15" "English" NA NA "female" "Post" "PO" "Pred" "Old"
"mAHHSzVZTjvhQSUAEWxAxdAgm" 6 "5post2" "The_prince_will_bring_the_turtle_a_cat" "Can_you_bring_the_turtle_the_cat?" "left" "right" "posttest" "7/17/2019" "09:55" "left" 1 2290.104 1 "09/07/15" "English" NA NA "female" "Post" "PO" "Pred" "Old"
"mAHHSzVZTjvhQSUAEWxAxdAgm" 7 "3post2" "Boots_will_throw_the_giraffe_a_balloon" "Can_you_throw_the_giraffe_the_balloon?" "left" "right" "posttest" "7/17/2019" "09:55" "left" 1 2228.104 1 "09/07/15" "English" NA NA "female" "Post" "PO" "Pred" "Old"
"mAHHSzVZTjvhQSUAEWxAxdAgm" 8 "1fillerpost2" "The_princess_will_tickle_the_teddy_bear_with_the_feather" "Can_you_tickle_the_teddy_bear_with_the_feather?" "right" "left" "posttest_filler" "7/17/2019" "09:55" "right" 1 4497.104 1 "09/07/15" "English" NA NA "female" "Post" "PO" "Pred" "Old"
"mAHHSzVZTjvhQSUAEWxAxdAgm" 9 "4Post2" "The_princess_will_send_the_lion_a_crocodile" "Can_you_send_the_lion_the_crocodile?" "right" "left" "posttest" "7/17/2019" "09:55" "right" 1 4368.104 1 "09/07/15" "English" NA NA "female" "Post" "PO" "Pred" "Old"
"mAHHSzVZTjvhQSUAEWxAxdAgm" 10 "2post2" "The_girl_will_bring_the_horse_an_ice_cream" "Can_you_bring_the_horse_the_ice_cream?" "left" "right" "posttest" "7/17/2019" "09:55" "left" 1 2692.104 1 "09/07/15" "English" NA NA "female" "Post" "PO" "Pred" "Old"
"MIc4v8dmnHxthlAYf9jNB5p65" 1 "2FillerPre2" "The_boy_will_put_the_train_in_the_box" "Can_you_put_the_train_in_the_box?" "right" "left" "pretest_filler" "6/28/2019" "10:49" "right" 1 4767.104 1 "4/2/15" "English" NA NA "male" "Post" "DO" "Pred" "Old"
"MIc4v8dmnHxthlAYf9jNB5p65" 2 "3FillerPre2" "The_girl_will_move_the_hat_to_the_table" "Can_you_move_the_hat_to_the_table?" "left" "right" "pretest_filler" "6/28/2019" "10:49" "right" 0 16831.104 4 "4/2/15" "English" NA NA "male" "Post" "DO" "Pred" "Old"
"MIc4v8dmnHxthlAYf9jNB5p65" 3 "1fillerpost2" "The_princess_will_tickle_the_teddy_bear_with_the_feather" "Can_you_tickle_the_teddy_bear_with_the_feather?" "right" "left" "posttest_filler" "6/28/2019" "10:49" "right" 1 8914.104 1 "4/2/15" "English" NA NA "male" "Post" "DO" "Pred" "Old"
"MIc4v8dmnHxthlAYf9jNB5p65" 4 "5post2" "The_prince_will_bring_the_turtle_a_cat" "Can_you_bring_the_turtle_the_cat?" "right" "left" "posttest" "6/28/2019" "10:49" "right" 1 6361.104 1 "4/2/15" "English" NA NA "male" "Post" "DO" "Pred" "Old"
"MIc4v8dmnHxthlAYf9jNB5p65" 5 "2post2" "The_girl_will_bring_the_horse_an_ice_cream" "Can_you_bring_the_horse_the_ice_cream?" "left" "right" "posttest" "6/28/2019" "10:49" "left" 1 2682.104 1 "4/2/15" "English" NA NA "male" "Post" "DO" "Pred" "Old"
"MIc4v8dmnHxthlAYf9jNB5p65" 6 "4Post2" "The_princess_will_send_the_lion_a_crocodile" "Can_you_send_the_lion_the_crocodile?" "left" "right" "posttest" "6/28/2019" "10:49" "right" 0 3685.104 1 "4/2/15" "English" NA NA "male" "Post" "DO" "Pred" "Old"
"MIc4v8dmnHxthlAYf9jNB5p65" 7 "2fillerpost2" "Boots_will_clean_the_chair_with_the_sponge" "Can_you_clean_the_chair_with_the_sponge?" "right" "left" "posttest_filler" "6/28/2019" "10:49" "right" 1 4226.104 1 "4/2/15" "English" NA NA "male" "Post" "DO" "Pred" "Old"
"MIc4v8dmnHxthlAYf9jNB5p65" 8 "1Post2" "The_boy_will_send_the_tiger_a_present" "Can_you_send_the_tiger_the_present?" "left" "right" "posttest" "6/28/2019" "10:49" "left" 1 2015.104 1 "4/2/15" "English" NA NA "male" "Post" "DO" "Pred" "Old"
"MIc4v8dmnHxthlAYf9jNB5p65" 9 "3post2" "Boots_will_throw_the_giraffe_a_balloon" "Can_you_throw_the_giraffe_the_balloon?" "right" "left" "posttest" "6/28/2019" "10:49" "right" 1 3828.104 1 "4/2/15" "English" NA NA "male" "Post" "DO" "Pred" "Old"
"MIc4v8dmnHxthlAYf9jNB5p65" 10 "6post2" "Dora_the_explorer_will_throw_the_puppy_a_hamster" "Can_you_throw_puppy_the_hamster?" "left" "right" "posttest" "6/28/2019" "10:49" "left" 1 9654.104 1 "4/2/15" "English" NA NA "male" "Post" "DO" "Pred" "Old"
"n0QM2830f1sZdddGcFJM7fi0a" 1 "2FillerPre2" "The_boy_will_put_the_train_in_the_box" "Can_you_put_the_train_in_the_box?" "right" "left" "pretest_filler" "7/18/2019" "11:09" "right" 1 1101.104 1 "07/11/14" "English" NA NA "female" "Post" "PO" "Pred" "Old"
"n0QM2830f1sZdddGcFJM7fi0a" 2 "3FillerPre2" "The_girl_will_move_the_hat_to_the_table" "Can_you_move_the_hat_to_the_table?" "left" "right" "pretest_filler" "7/18/2019" "11:09" "left" 1 1590.104 1 "07/11/14" "English" NA NA "female" "Post" "PO" "Pred" "Old"
"n0QM2830f1sZdddGcFJM7fi0a" 3 "2post2" "The_girl_will_bring_the_horse_an_ice_cream" "Can_you_bring_the_horse_the_ice_cream?" "left" "right" "posttest" "7/18/2019" "11:09" "left" 1 3528.104 1 "07/11/14" "English" NA NA "female" "Post" "PO" "Pred" "Old"
"n0QM2830f1sZdddGcFJM7fi0a" 4 "6post2" "Dora_the_explorer_will_throw_the_puppy_a_hamster" "Can_you_throw_puppy_the_hamster?" "right" "left" "posttest" "7/18/2019" "11:09" "right" 1 1407.104 1 "07/11/14" "English" NA NA "female" "Post" "PO" "Pred" "Old"
"n0QM2830f1sZdddGcFJM7fi0a" 5 "1Post2" "The_boy_will_send_the_tiger_a_present" "Can_you_send_the_tiger_the_present?" "left" "right" "posttest" "7/18/2019" "11:09" "left" 1 1494.104 1 "07/11/14" "English" NA NA "female" "Post" "PO" "Pred" "Old"
"n0QM2830f1sZdddGcFJM7fi0a" 6 "1fillerpost2" "The_princess_will_tickle_the_teddy_bear_with_the_feather" "Can_you_tickle_the_teddy_bear_with_the_feather?" "left" "right" "posttest_filler" "7/18/2019" "11:09" "left" 1 3563.104 1 "07/11/14" "English" NA NA "female" "Post" "PO" "Pred" "Old"
"n0QM2830f1sZdddGcFJM7fi0a" 7 "2fillerpost2" "Boots_will_clean_the_chair_with_the_sponge" "Can_you_clean_the_chair_with_the_sponge?" "left" "right" "posttest_filler" "7/18/2019" "11:09" "left" 1 2119.104 1 "07/11/14" "English" NA NA "female" "Post" "PO" "Pred" "Old"
"n0QM2830f1sZdddGcFJM7fi0a" 8 "4Post2" "The_princess_will_send_the_lion_a_crocodile" "Can_you_send_the_lion_the_crocodile?" "right" "left" "posttest" "7/18/2019" "11:09" "right" 1 1443.104 1 "07/11/14" "English" NA NA "female" "Post" "PO" "Pred" "Old"
"n0QM2830f1sZdddGcFJM7fi0a" 9 "3post2" "Boots_will_throw_the_giraffe_a_balloon" "Can_you_throw_the_giraffe_the_balloon?" "right" "left" "posttest" "7/18/2019" "11:09" "right" 1 1210.104 1 "07/11/14" "English" NA NA "female" "Post" "PO" "Pred" "Old"
"n0QM2830f1sZdddGcFJM7fi0a" 10 "5post2" "The_prince_will_bring_the_turtle_a_cat" "Can_you_bring_the_turtle_the_cat?" "right" "left" "posttest" "7/18/2019" "11:09" "right" 1 2059.104 1 "07/11/14" "English" NA NA "female" "Post" "PO" "Pred" "Old"
"n1rv5Hr5IS81uEHeBAJK9gCzL" 1 "2FillerPre2" "The_boy_will_put_the_train_in_the_box" "Can_you_put_the_train_in_the_box?" "right" "left" "pretest_filler" "05/03/2019" "16:21" "right" 1 3207.104 1 "03/09/2014" "English" NA NA "male" "Pre" "PO" "NonPred" "Old"
"n1rv5Hr5IS81uEHeBAJK9gCzL" 2 "3FillerPre2" "The_girl_will_move_the_hat_to_the_table" "Can_you_move_the_hat_to_the_table?" "left" "right" "pretest_filler" "05/03/2019" "16:21" "left" 1 3453.104 1 "03/09/2014" "English" NA NA "male" "Pre" "PO" "NonPred" "Old"
"n1rv5Hr5IS81uEHeBAJK9gCzL" 3 "1Pre2" "The_boy_will_bring_the_giraffe_a_cake" "Can_you_bring_the_giraffe_the_cake?" "right" "left" "pretest" "05/03/2019" "16:21" "left" 0 1940.104 1 "03/09/2014" "English" NA NA "male" "Pre" "PO" "NonPred" "Old"
"n1rv5Hr5IS81uEHeBAJK9gCzL" 4 "4Pre2" "The_king_will_throw_the_turtle_a_squirrel" "Can_you_throw_the_turtle_the_squirrel?" "right" "left" "pretest" "05/03/2019" "16:21" "left" 0 7768.104 1 "03/09/2014" "English" NA NA "male" "Pre" "PO" "NonPred" "Old"
"n1rv5Hr5IS81uEHeBAJK9gCzL" 5 "5Pre2" "The_queen_will_send_the_monkey_a_horse" "Can_you_send_the_monkey_the_horse?" "right" "left" "pretest" "05/03/2019" "16:21" "left" 0 2702.104 1 "03/09/2014" "English" NA NA "male" "Pre" "PO" "NonPred" "Old"
"n1rv5Hr5IS81uEHeBAJK9gCzL" 6 "2Pre2" "The_girl_will_throw_the_elephant_a_clock" "Can_you_throw_the_elephant_the_clock?" "left" "right" "pretest" "05/03/2019" "16:21" "right" 0 2631.104 1 "03/09/2014" "English" NA NA "male" "Pre" "PO" "NonPred" "Old"
"n1rv5Hr5IS81uEHeBAJK9gCzL" 7 "1FillerPre2" "Peppa_pig_will_bounce_the_ball_with_the_bat" "Can_you_bounce_the_ball_with_the_bat?" "right" "left" "pretest_filler" "05/03/2019" "16:21" "left" 0 4054.104 2 "03/09/2014" "English" NA NA "male" "Pre" "PO" "NonPred" "Old"
"n1rv5Hr5IS81uEHeBAJK9gCzL" 8 "6Pre2" "Emily_elephant_will_bring_the_mouse_a_rabbit" "Can_you_bring_the_mouse_the_rabbit?" "left" "right" "pretest" "05/03/2019" "16:21" "right" 0 1896.104 1 "03/09/2014" "English" NA NA "male" "Pre" "PO" "NonPred" "Old"
"n1rv5Hr5IS81uEHeBAJK9gCzL" 9 "4FillerPre2" "The_king_will_poke_the_jelly_with_the_fork" "Can_you_poke_the_jelly_with_the_fork?" "left" "right" "pretest_filler" "05/03/2019" "16:21" "right" 0 3537.104 1 "03/09/2014" "English" NA NA "male" "Pre" "PO" "NonPred" "Old"
"n1rv5Hr5IS81uEHeBAJK9gCzL" 10 "3Pre2" "Peppa_Pig_will_send_the_hamster_a_toy" "Can_you_send_the_hamster_the_toy?" "left" "right" "pretest" "05/03/2019" "16:21" "right" 0 1812.104 1 "03/09/2014" "English" NA NA "male" "Pre" "PO" "NonPred" "Old"
"na6JemgEBhLGSAFLy5wX7Gw3O" 1 "2FillerPre2" "The_boy_will_put_the_train_in_the_box" "Can_you_put_the_train_in_the_box?" "right" "left" "pretest_filler" "7/2/2019" "09:08" "right" 1 2486.104 1 "02/03/15" "English" NA NA "male" "Pre" "PO" "Pred" "Old"
"na6JemgEBhLGSAFLy5wX7Gw3O" 2 "3FillerPre2" "The_girl_will_move_the_hat_to_the_table" "Can_you_move_the_hat_to_the_table?" "left" "right" "pretest_filler" "7/2/2019" "09:08" "left" 1 3998.104 2 "02/03/15" "English" NA NA "male" "Pre" "PO" "Pred" "Old"
"na6JemgEBhLGSAFLy5wX7Gw3O" 3 "3Pre2" "Peppa_Pig_will_send_the_hamster_a_toy" "Can_you_send_the_hamster_the_toy?" "left" "right" "pretest" "7/2/2019" "09:08" "left" 1 7038.104 1 "02/03/15" "English" NA NA "male" "Pre" "PO" "Pred" "Old"
"na6JemgEBhLGSAFLy5wX7Gw3O" 4 "2Pre2" "The_girl_will_throw_the_elephant_a_clock" "Can_you_throw_the_elephant_the_clock?" "right" "left" "pretest" "7/2/2019" "09:08" "right" 1 5249.104 1 "02/03/15" "English" NA NA "male" "Pre" "PO" "Pred" "Old"
"na6JemgEBhLGSAFLy5wX7Gw3O" 5 "1Pre2" "The_boy_will_bring_the_giraffe_a_cake" "Can_you_bring_the_giraffe_the_cake?" "right" "left" "pretest" "7/2/2019" "09:08" "left" 0 2213.104 1 "02/03/15" "English" NA NA "male" "Pre" "PO" "Pred" "Old"
"na6JemgEBhLGSAFLy5wX7Gw3O" 6 "6Pre2" "Emily_elephant_will_bring_the_mouse_a_rabbit" "Can_you_bring_the_mouse_the_rabbit?" "right" "left" "pretest" "7/2/2019" "09:08" "right" 1 3875.104 1 "02/03/15" "English" NA NA "male" "Pre" "PO" "Pred" "Old"
"na6JemgEBhLGSAFLy5wX7Gw3O" 7 "4Pre2" "The_king_will_throw_the_turtle_a_squirrel" "Can_you_throw_the_turtle_the_squirrel?" "left" "right" "pretest" "7/2/2019" "09:08" "left" 1 1252.104 1 "02/03/15" "English" NA NA "male" "Pre" "PO" "Pred" "Old"
"na6JemgEBhLGSAFLy5wX7Gw3O" 8 "5Pre2" "The_queen_will_send_the_monkey_a_horse" "Can_you_send_the_monkey_the_horse?" "left" "right" "pretest" "7/2/2019" "09:08" "left" 1 12305.104 1 "02/03/15" "English" NA NA "male" "Pre" "PO" "Pred" "Old"
"na6JemgEBhLGSAFLy5wX7Gw3O" 9 "4FillerPre2" "The_king_will_poke_the_jelly_with_the_fork" "Can_you_poke_the_jelly_with_the_fork?" "left" "right" "pretest_filler" "7/2/2019" "09:08" "right" 0 4862.104 1 "02/03/15" "English" NA NA "male" "Pre" "PO" "Pred" "Old"
"na6JemgEBhLGSAFLy5wX7Gw3O" 10 "1FillerPre2" "Peppa_pig_will_bounce_the_ball_with_the_bat" "Can_you_bounce_the_ball_with_the_bat?" "right" "left" "pretest_filler" "7/2/2019" "09:08" "right" 1 3818.104 1 "02/03/15" "English" NA NA "male" "Pre" "PO" "Pred" "Old"
"nb3vS6MAGwB57xfdb8LxM8R21" 1 "2FillerPre2" "The_boy_will_put_the_train_in_the_box" "Can_you_put_the_train_in_the_box?" "right" "left" "pretest_filler" "7/18/2019" "14:45" "right" 1 2262.104 1 "15/04/15" "English" NA NA "male" "Post" "DO" "Pred" "Old"
"nb3vS6MAGwB57xfdb8LxM8R21" 2 "3FillerPre2" "The_girl_will_move_the_hat_to_the_table" "Can_you_move_the_hat_to_the_table?" "left" "right" "pretest_filler" "7/18/2019" "14:45" "left" 1 1163.104 1 "15/04/15" "English" NA NA "male" "Post" "DO" "Pred" "Old"
"nb3vS6MAGwB57xfdb8LxM8R21" 3 "6post2" "Dora_the_explorer_will_throw_the_puppy_a_hamster" "Can_you_throw_puppy_the_hamster?" "left" "right" "posttest" "7/18/2019" "14:45" "right" 0 15199.104 1 "15/04/15" "English" NA NA "male" "Post" "DO" "Pred" "Old"
"nb3vS6MAGwB57xfdb8LxM8R21" 4 "3post2" "Boots_will_throw_the_giraffe_a_balloon" "Can_you_throw_the_giraffe_the_balloon?" "left" "right" "posttest" "7/18/2019" "14:45" "right" 0 4678.104 1 "15/04/15" "English" NA NA "male" "Post" "DO" "Pred" "Old"
"nb3vS6MAGwB57xfdb8LxM8R21" 5 "5post2" "The_prince_will_bring_the_turtle_a_cat" "Can_you_bring_the_turtle_the_cat?" "right" "left" "posttest" "7/18/2019" "14:45" "left" 0 971.104 1 "15/04/15" "English" NA NA "male" "Post" "DO" "Pred" "Old"
"nb3vS6MAGwB57xfdb8LxM8R21" 6 "1fillerpost2" "The_princess_will_tickle_the_teddy_bear_with_the_feather" "Can_you_tickle_the_teddy_bear_with_the_feather?" "left" "right" "posttest_filler" "7/18/2019" "14:45" "left" 1 8362.104 1 "15/04/15" "English" NA NA "male" "Post" "DO" "Pred" "Old"
"nb3vS6MAGwB57xfdb8LxM8R21" 7 "2fillerpost2" "Boots_will_clean_the_chair_with_the_sponge" "Can_you_clean_the_chair_with_the_sponge?" "right" "left" "posttest_filler" "7/18/2019" "14:45" "right" 1 3541.104 1 "15/04/15" "English" NA NA "male" "Post" "DO" "Pred" "Old"
"nb3vS6MAGwB57xfdb8LxM8R21" 8 "2post2" "The_girl_will_bring_the_horse_an_ice_cream" "Can_you_bring_the_horse_the_ice_cream?" "right" "left" "posttest" "7/18/2019" "14:45" "right" 1 8854.104 1 "15/04/15" "English" NA NA "male" "Post" "DO" "Pred" "Old"
"nb3vS6MAGwB57xfdb8LxM8R21" 9 "4Post2" "The_princess_will_send_the_lion_a_crocodile" "Can_you_send_the_lion_the_crocodile?" "right" "left" "posttest" "7/18/2019" "14:45" "right" 1 3188.104 1 "15/04/15" "English" NA NA "male" "Post" "DO" "Pred" "Old"
"nb3vS6MAGwB57xfdb8LxM8R21" 10 "1Post2" "The_boy_will_send_the_tiger_a_present" "Can_you_send_the_tiger_the_present?" "left" "right" "posttest" "7/18/2019" "14:45" "left" 1 10151.104 1 "15/04/15" "English" NA NA "male" "Post" "DO" "Pred" "Old"
"nd74ahWCLiQTJaYcHMUyLlKle" 1 "2FillerPre2" "The_boy_will_put_the_train_in_the_box" "Can_you_put_the_train_in_the_box?" "right" "left" "pretest_filler" "4/18/2019" "13:26" "right" 1 2699.104 1 "29/09/2014" "English" NA NA "female" "Pre" "PO" "Pred" "Old"
"nd74ahWCLiQTJaYcHMUyLlKle" 2 "3FillerPre2" "The_girl_will_move_the_hat_to_the_table" "Can_you_move_the_hat_to_the_table?" "left" "right" "pretest_filler" "4/18/2019" "13:26" "left" 1 2868.104 1 "29/09/2014" "English" NA NA "female" "Pre" "PO" "Pred" "Old"
"nd74ahWCLiQTJaYcHMUyLlKle" 3 "2Pre2" "The_girl_will_throw_the_elephant_a_clock" "Can_you_throw_the_elephant_the_clock?" "right" "left" "pretest" "4/18/2019" "13:26" "left" 0 3263.104 1 "29/09/2014" "English" NA NA "female" "Pre" "PO" "Pred" "Old"
"nd74ahWCLiQTJaYcHMUyLlKle" 4 "5Pre2" "The_queen_will_send_the_monkey_a_horse" "Can_you_send_the_monkey_the_horse?" "right" "left" "pretest" "4/18/2019" "13:26" "left" 0 3412.104 1 "29/09/2014" "English" NA NA "female" "Pre" "PO" "Pred" "Old"
"nd74ahWCLiQTJaYcHMUyLlKle" 5 "6Pre2" "Emily_elephant_will_bring_the_mouse_a_rabbit" "Can_you_bring_the_mouse_the_rabbit?" "left" "right" "pretest" "4/18/2019" "13:26" "right" 0 2186.104 1 "29/09/2014" "English" NA NA "female" "Pre" "PO" "Pred" "Old"
"nd74ahWCLiQTJaYcHMUyLlKle" 6 "1FillerPre2" "Peppa_pig_will_bounce_the_ball_with_the_bat" "Can_you_bounce_the_ball_with_the_bat?" "right" "left" "pretest_filler" "4/18/2019" "13:26" "right" 1 9026.104 1 "29/09/2014" "English" NA NA "female" "Pre" "PO" "Pred" "Old"
"nd74ahWCLiQTJaYcHMUyLlKle" 7 "3Pre2" "Peppa_Pig_will_send_the_hamster_a_toy" "Can_you_send_the_hamster_the_toy?" "left" "right" "pretest" "4/18/2019" "13:26" "left" 1 2435.104 1 "29/09/2014" "English" NA NA "female" "Pre" "PO" "Pred" "Old"
"nd74ahWCLiQTJaYcHMUyLlKle" 8 "4FillerPre2" "The_king_will_poke_the_jelly_with_the_fork" "Can_you_poke_the_jelly_with_the_fork?" "left" "right" "pretest_filler" "4/18/2019" "13:26" "left" 1 4282.104 1 "29/09/2014" "English" NA NA "female" "Pre" "PO" "Pred" "Old"
"nd74ahWCLiQTJaYcHMUyLlKle" 9 "1Pre2" "The_boy_will_bring_the_giraffe_a_cake" "Can_you_bring_the_giraffe_the_cake?" "left" "right" "pretest" "4/18/2019" "13:26" "left" 1 2598.104 1 "29/09/2014" "English" NA NA "female" "Pre" "PO" "Pred" "Old"
"nd74ahWCLiQTJaYcHMUyLlKle" 10 "4Pre2" "The_king_will_throw_the_turtle_a_squirrel" "Can_you_throw_the_turtle_the_squirrel?" "right" "left" "pretest" "4/18/2019" "13:26" "left" 0 1499.104 1 "29/09/2014" "English" NA NA "female" "Pre" "PO" "Pred" "Old"
"nmTDvGRZx8JwbJ8saKJPKN36o" 1 "2FillerPre2" "The_boy_will_put_the_train_in_the_box" "Can_you_put_the_train_in_the_box?" "right" "left" "pretest_filler" "7/17/2019" "10:14" "right" 1 2429.104 1 "29/11/14" "English" NA NA "male" "Post" "PO" "NonPred" "Old"
"nmTDvGRZx8JwbJ8saKJPKN36o" 2 "3FillerPre2" "The_girl_will_move_the_hat_to_the_table" "Can_you_move_the_hat_to_the_table?" "left" "right" "pretest_filler" "7/17/2019" "10:14" "left" 1 4495.104 1 "29/11/14" "English" NA NA "male" "Post" "PO" "NonPred" "Old"
"nmTDvGRZx8JwbJ8saKJPKN36o" 3 "3post2" "Boots_will_throw_the_giraffe_a_balloon" "Can_you_throw_the_giraffe_the_balloon?" "right" "left" "posttest" "7/17/2019" "10:14" "right" 1 1415.104 1 "29/11/14" "English" NA NA "male" "Post" "PO" "NonPred" "Old"
"nmTDvGRZx8JwbJ8saKJPKN36o" 4 "2post2" "The_girl_will_bring_the_horse_an_ice_cream" "Can_you_bring_the_horse_the_ice_cream?" "left" "right" "posttest" "7/17/2019" "10:14" "left" 1 1280.104 1 "29/11/14" "English" NA NA "male" "Post" "PO" "NonPred" "Old"
"nmTDvGRZx8JwbJ8saKJPKN36o" 5 "5post2" "The_prince_will_bring_the_turtle_a_cat" "Can_you_bring_the_turtle_the_cat?" "left" "right" "posttest" "7/17/2019" "10:14" "right" 0 1034.104 1 "29/11/14" "English" NA NA "male" "Post" "PO" "NonPred" "Old"
"nmTDvGRZx8JwbJ8saKJPKN36o" 6 "4Post2" "The_princess_will_send_the_lion_a_crocodile" "Can_you_send_the_lion_the_crocodile?" "right" "left" "posttest" "7/17/2019" "10:14" "left" 0 2432.104 1 "29/11/14" "English" NA NA "male" "Post" "PO" "NonPred" "Old"
"nmTDvGRZx8JwbJ8saKJPKN36o" 7 "6post2" "Dora_the_explorer_will_throw_the_puppy_a_hamster" "Can_you_throw_puppy_the_hamster?" "right" "left" "posttest" "7/17/2019" "10:14" "left" 0 1084.104 1 "29/11/14" "English" NA NA "male" "Post" "PO" "NonPred" "Old"
"nmTDvGRZx8JwbJ8saKJPKN36o" 8 "2fillerpost2" "Boots_will_clean_the_chair_with_the_sponge" "Can_you_clean_the_chair_with_the_sponge?" "left" "right" "posttest_filler" "7/17/2019" "10:14" "left" 1 3979.104 1 "29/11/14" "English" NA NA "male" "Post" "PO" "NonPred" "Old"
"nmTDvGRZx8JwbJ8saKJPKN36o" 9 "1fillerpost2" "The_princess_will_tickle_the_teddy_bear_with_the_feather" "Can_you_tickle_the_teddy_bear_with_the_feather?" "left" "right" "posttest_filler" "7/17/2019" "10:14" "left" 1 4275.104 1 "29/11/14" "English" NA NA "male" "Post" "PO" "NonPred" "Old"
"nmTDvGRZx8JwbJ8saKJPKN36o" 10 "1Post2" "The_boy_will_send_the_tiger_a_present" "Can_you_send_the_tiger_the_present?" "right" "left" "posttest" "7/17/2019" "10:14" "right" 1 1615.104 1 "29/11/14" "English" NA NA "male" "Post" "PO" "NonPred" "Old"
"nV30W6yfyKKXdgNghKVNBL5nw" 1 "2FillerPre2" "The_boy_will_put_the_train_in_the_box" "Can_you_put_the_train_in_the_box?" "right" "left" "pretest_filler" "7/18/2019" "10:25" "right" 1 5021.104 1 "08/02/15" "English" NA NA "male" "Pre" "DO" "Pred" "Old"
