"subject_id" "trial_number" "trial_id" "target_sentence" "question" "target_side" "other_side" "trial_type" "date_stamp" "time_stamp" "side_chosen" "accuracy" "rt" "play_counter" "date_of_birth" "native_lang" "other_langs" "dev_info" "gender" "order" "sentence_type" "animacy" "version"
"1Y4e0MFuRxXrHrR9KWyzwUspQ" 1 "2FillerPre2" "The_boy_will_put_the_train_in_the_box" "Can_you_put_the_train_in_the_box?" "right" "left" "pretest_filler" "1/20/2022" "16:27" "right" 1 1749.104 1 "2022-01-20" "English " NA NA "male" "Pre" "PO" "Pred" "New_bis"
"1Y4e0MFuRxXrHrR9KWyzwUspQ" 2 "3FillerPre2" "The_girl_will_move_the_hat_to_the_table" "Can_you_move_the_hat_to_the_table?" "left" "right" "pretest_filler" "1/20/2022" "16:27" "left" 1 3317.104 1 "2022-01-20" "English " NA NA "male" "Pre" "PO" "Pred" "New_bis"
"1Y4e0MFuRxXrHrR9KWyzwUspQ" 3 "1Pre2" "The_boy_will_bring_the_giraffe_a_cake" "Can_you_bring_the_giraffe_the_cake?" "left" "right" "pretest" "1/20/2022" "16:27" "left" 1 1853.104 1 "2022-01-20" "English " NA NA "male" "Pre" "PO" "Pred" "New_bis"
"1Y4e0MFuRxXrHrR9KWyzwUspQ" 4 "3Pre2" "Peppa_Pig_will_send_the_hamster_a_toy" "Can_you_send_the_hamster_the_toy?" "right" "left" "pretest" "1/20/2022" "16:27" "right" 1 2153.104 1 "2022-01-20" "English " NA NA "male" "Pre" "PO" "Pred" "New_bis"
"1Y4e0MFuRxXrHrR9KWyzwUspQ" 5 "4FillerPre2" "The_king_will_poke_the_jelly_with_the_fork" "Can_you_poke_the_jelly_with_the_fork?" "right" "left" "pretest_filler" "1/20/2022" "16:27" "right" 1 2043.104 1 "2022-01-20" "English " NA NA "male" "Pre" "PO" "Pred" "New_bis"
"1Y4e0MFuRxXrHrR9KWyzwUspQ" 6 "5Pre2" "The_queen_will_send_the_monkey_a_horse" "Can_you_send_the_monkey_the_horse?" "left" "right" "pretest" "1/20/2022" "16:27" "left" 1 2921.104 1 "2022-01-20" "English " NA NA "male" "Pre" "PO" "Pred" "New_bis"
"1Y4e0MFuRxXrHrR9KWyzwUspQ" 7 "1FillerPre2" "Peppa_pig_will_bounce_the_ball_with_the_bat" "Can_you_bounce_the_ball_with_the_bat?" "right" "left" "pretest_filler" "1/20/2022" "16:27" "right" 1 2211.104 1 "2022-01-20" "English " NA NA "male" "Pre" "PO" "Pred" "New_bis"
"1Y4e0MFuRxXrHrR9KWyzwUspQ" 8 "6Pre2" "Emily_elephant_will_bring_the_mouse_a_rabbit" "Can_you_bring_the_mouse_the_rabbit?" "left" "right" "pretest" "1/20/2022" "16:27" "left" 1 2564.104 1 "2022-01-20" "English " NA NA "male" "Pre" "PO" "Pred" "New_bis"
"1Y4e0MFuRxXrHrR9KWyzwUspQ" 9 "2Pre2" "The_girl_will_throw_the_elephant_a_clock" "Can_you_throw_the_elephant_the_clock?" "left" "right" "pretest" "1/20/2022" "16:27" "left" 1 3932.104 1 "2022-01-20" "English " NA NA "male" "Pre" "PO" "Pred" "New_bis"
"1Y4e0MFuRxXrHrR9KWyzwUspQ" 10 "4Pre2" "The_king_will_throw_the_turtle_a_squirrel" "Can_you_throw_the_turtle_the_squirrel?" "right" "left" "pretest" "1/20/2022" "16:27" "right" 1 1278.104 1 "2022-01-20" "English " NA NA "male" "Pre" "PO" "Pred" "New_bis"
"9tgX9dSGT5G8o6baudKTMGquB" 1 "2FillerPre2" "The_boy_will_put_the_train_in_the_box" "Can_you_put_the_train_in_the_box?" "right" "left" "pretest_filler" "3/16/2022" "12:57" "right" 1 2297.104 1 "2022-03-16" "English " NA NA "female" "Post" "DO" "NonPred" "New_bis"
"9tgX9dSGT5G8o6baudKTMGquB" 2 "3FillerPre2" "The_girl_will_move_the_hat_to_the_table" "Can_you_move_the_hat_to_the_table?" "left" "right" "pretest_filler" "3/16/2022" "12:57" "left" 1 2174.104 1 "2022-03-16" "English " NA NA "female" "Post" "DO" "NonPred" "New_bis"
"9tgX9dSGT5G8o6baudKTMGquB" 3 "4Post2" "The_princess_will_send_the_lion_a_crocodile" "Can_you_send_the_lion_the_crocodile?" "left" "right" "posttest" "3/16/2022" "12:57" "right" 0 2137.104 1 "2022-03-16" "English " NA NA "female" "Post" "DO" "NonPred" "New_bis"
"9tgX9dSGT5G8o6baudKTMGquB" 4 "2fillerpost2" "Boots_will_clean_the_chair_with_the_sponge" "Can_you_clean_the_chair_with_the_sponge?" "left" "right" "posttest_filler" "3/16/2022" "12:57" "left" 1 3721.104 1 "2022-03-16" "English " NA NA "female" "Post" "DO" "NonPred" "New_bis"
"9tgX9dSGT5G8o6baudKTMGquB" 5 "1Post2" "The_boy_will_send_the_tiger_a_present" "Can_you_send_the_tiger_the_present?" "right" "left" "posttest" "3/16/2022" "12:57" "left" 0 1431.104 1 "2022-03-16" "English " NA NA "female" "Post" "DO" "NonPred" "New_bis"
"9tgX9dSGT5G8o6baudKTMGquB" 6 "3post2" "Boots_will_throw_the_giraffe_a_balloon" "Can_you_throw_the_giraffe_the_balloon?" "right" "left" "posttest" "3/16/2022" "12:57" "left" 0 1405.104 1 "2022-03-16" "English " NA NA "female" "Post" "DO" "NonPred" "New_bis"
"9tgX9dSGT5G8o6baudKTMGquB" 7 "2post2" "The_girl_will_bring_the_horse_an_ice_cream" "Can_you_bring_the_horse_the_ice_cream?" "right" "left" "posttest" "3/16/2022" "12:57" "left" 0 2006.104 1 "2022-03-16" "English " NA NA "female" "Post" "DO" "NonPred" "New_bis"
"9tgX9dSGT5G8o6baudKTMGquB" 8 "1fillerpost2" "The_princess_will_tickle_the_teddy_bear_with_the_feather" "Can_you_tickle_the_teddy_bear_with_the_feather?" "left" "right" "posttest_filler" "3/16/2022" "12:57" "left" 1 4302.104 1 "2022-03-16" "English " NA NA "female" "Post" "DO" "NonPred" "New_bis"
"9tgX9dSGT5G8o6baudKTMGquB" 9 "6post2" "Dora_the_explorer_will_throw_the_puppy_a_hamster" "Can_you_throw_puppy_the_hamster?" "left" "right" "posttest" "3/16/2022" "12:57" "right" 0 2254.104 1 "2022-03-16" "English " NA NA "female" "Post" "DO" "NonPred" "New_bis"
"9tgX9dSGT5G8o6baudKTMGquB" 10 "5post2" "The_prince_will_bring_the_turtle_a_cat" "Can_you_bring_the_turtle_the_cat?" "right" "left" "posttest" "3/16/2022" "12:57" "left" 0 2520.104 1 "2022-03-16" "English " NA NA "female" "Post" "DO" "NonPred" "New_bis"
"9wZUphPqxE4pSTMvu4dpMrJuT" 1 "2FillerPre2" "The_boy_will_put_the_train_in_the_box" "Can_you_put_the_train_in_the_box?" "right" "left" "pretest_filler" "1/20/2022" "16:08" "right" 1 2771.104 1 "2022-01-20" "English " NA NA "male" "Post" "DO" "NonPred" "New_bis"
"9wZUphPqxE4pSTMvu4dpMrJuT" 2 "3FillerPre2" "The_girl_will_move_the_hat_to_the_table" "Can_you_move_the_hat_to_the_table?" "left" "right" "pretest_filler" "1/20/2022" "16:08" "left" 1 2650.104 1 "2022-01-20" "English " NA NA "male" "Post" "DO" "NonPred" "New_bis"
"9wZUphPqxE4pSTMvu4dpMrJuT" 3 "3post2" "Boots_will_throw_the_giraffe_a_balloon" "Can_you_throw_the_giraffe_the_balloon?" "left" "right" "posttest" "1/20/2022" "16:08" "left" 1 2447.104 1 "2022-01-20" "English " NA NA "male" "Post" "DO" "NonPred" "New_bis"
"9wZUphPqxE4pSTMvu4dpMrJuT" 4 "2fillerpost2" "Boots_will_clean_the_chair_with_the_sponge" "Can_you_clean_the_chair_with_the_sponge?" "right" "left" "posttest_filler" "1/20/2022" "16:08" "right" 1 2064.104 1 "2022-01-20" "English " NA NA "male" "Post" "DO" "NonPred" "New_bis"
"9wZUphPqxE4pSTMvu4dpMrJuT" 5 "2post2" "The_girl_will_bring_the_horse_an_ice_cream" "Can_you_bring_the_horse_the_ice_cream?" "right" "left" "posttest" "1/20/2022" "16:08" "right" 1 2417.104 1 "2022-01-20" "English " NA NA "male" "Post" "DO" "NonPred" "New_bis"
"9wZUphPqxE4pSTMvu4dpMrJuT" 6 "5post2" "The_prince_will_bring_the_turtle_a_cat" "Can_you_bring_the_turtle_the_cat?" "right" "left" "posttest" "1/20/2022" "16:08" "right" 1 5249.104 1 "2022-01-20" "English " NA NA "male" "Post" "DO" "NonPred" "New_bis"
"9wZUphPqxE4pSTMvu4dpMrJuT" 7 "1fillerpost2" "The_princess_will_tickle_the_teddy_bear_with_the_feather" "Can_you_tickle_the_teddy_bear_with_the_feather?" "left" "right" "posttest_filler" "1/20/2022" "16:08" "left" 1 3696.104 1 "2022-01-20" "English " NA NA "male" "Post" "DO" "NonPred" "New_bis"
"9wZUphPqxE4pSTMvu4dpMrJuT" 8 "6post2" "Dora_the_explorer_will_throw_the_puppy_a_hamster" "Can_you_throw_puppy_the_hamster?" "left" "right" "posttest" "1/20/2022" "16:08" "left" 1 2594.104 1 "2022-01-20" "English " NA NA "male" "Post" "DO" "NonPred" "New_bis"
"9wZUphPqxE4pSTMvu4dpMrJuT" 9 "1Post2" "The_boy_will_send_the_tiger_a_present" "Can_you_send_the_tiger_the_present?" "right" "left" "posttest" "1/20/2022" "16:08" "right" 1 1974.104 1 "2022-01-20" "English " NA NA "male" "Post" "DO" "NonPred" "New_bis"
"9wZUphPqxE4pSTMvu4dpMrJuT" 10 "4Post2" "The_princess_will_send_the_lion_a_crocodile" "Can_you_send_the_lion_the_crocodile?" "left" "right" "posttest" "1/20/2022" "16:08" "right" 0 3591.104 1 "2022-01-20" "English " NA NA "male" "Post" "DO" "NonPred" "New_bis"
"AoFwm7N8UlHOBXdROEhXuEzNe" 1 "2FillerPre2" "The_boy_will_put_the_train_in_the_box" "Can_you_put_the_train_in_the_box?" "right" "left" "pretest_filler" "3/30/2022" "17:02" "right" 1 3205.104 1 "2022-03-20" "English" NA NA "female" "Pre" "PO" "Pred" "New_bis"
"AoFwm7N8UlHOBXdROEhXuEzNe" 2 "3FillerPre2" "The_girl_will_move_the_hat_to_the_table" "Can_you_move_the_hat_to_the_table?" "left" "right" "pretest_filler" "3/30/2022" "17:02" "left" 1 1838.104 1 "2022-03-20" "English" NA NA "female" "Pre" "PO" "Pred" "New_bis"
"AoFwm7N8UlHOBXdROEhXuEzNe" 3 "3Pre2" "Peppa_Pig_will_send_the_hamster_a_toy" "Can_you_send_the_hamster_the_toy?" "left" "right" "pretest" "3/30/2022" "17:02" "right" 0 1389.104 1 "2022-03-20" "English" NA NA "female" "Pre" "PO" "Pred" "New_bis"
"AoFwm7N8UlHOBXdROEhXuEzNe" 4 "5Pre2" "The_queen_will_send_the_monkey_a_horse" "Can_you_send_the_monkey_the_horse?" "right" "left" "pretest" "3/30/2022" "17:02" "left" 0 3447.104 1 "2022-03-20" "English" NA NA "female" "Pre" "PO" "Pred" "New_bis"
"AoFwm7N8UlHOBXdROEhXuEzNe" 5 "4FillerPre2" "The_king_will_poke_the_jelly_with_the_fork" "Can_you_poke_the_jelly_with_the_fork?" "left" "right" "pretest_filler" "3/30/2022" "17:02" "left" 1 1754.104 1 "2022-03-20" "English" NA NA "female" "Pre" "PO" "Pred" "New_bis"
"AoFwm7N8UlHOBXdROEhXuEzNe" 6 "1Pre2" "The_boy_will_bring_the_giraffe_a_cake" "Can_you_bring_the_giraffe_the_cake?" "right" "left" "pretest" "3/30/2022" "17:02" "left" 0 2810.104 1 "2022-03-20" "English" NA NA "female" "Pre" "PO" "Pred" "New_bis"
"AoFwm7N8UlHOBXdROEhXuEzNe" 7 "6Pre2" "Emily_elephant_will_bring_the_mouse_a_rabbit" "Can_you_bring_the_mouse_the_rabbit?" "right" "left" "pretest" "3/30/2022" "17:02" "left" 0 2086.104 1 "2022-03-20" "English" NA NA "female" "Pre" "PO" "Pred" "New_bis"
"AoFwm7N8UlHOBXdROEhXuEzNe" 8 "2Pre2" "The_girl_will_throw_the_elephant_a_clock" "Can_you_throw_the_elephant_the_clock?" "left" "right" "pretest" "3/30/2022" "17:02" "right" 0 2288.104 1 "2022-03-20" "English" NA NA "female" "Pre" "PO" "Pred" "New_bis"
"AoFwm7N8UlHOBXdROEhXuEzNe" 9 "1FillerPre2" "Peppa_pig_will_bounce_the_ball_with_the_bat" "Can_you_bounce_the_ball_with_the_bat?" "left" "right" "pretest_filler" "3/30/2022" "17:02" "right" 0 2939.104 1 "2022-03-20" "English" NA NA "female" "Pre" "PO" "Pred" "New_bis"
"AoFwm7N8UlHOBXdROEhXuEzNe" 10 "4Pre2" "The_king_will_throw_the_turtle_a_squirrel" "Can_you_throw_the_turtle_the_squirrel?" "right" "left" "pretest" "3/30/2022" "17:02" "left" 0 2519.104 1 "2022-03-20" "English" NA NA "female" "Pre" "PO" "Pred" "New_bis"
"BdGSOufSBwUolVRT3rOkCuppF" 1 "2FillerPre2" "The_boy_will_put_the_train_in_the_box" "Can_you_put_the_train_in_the_box?" "right" "left" "pretest_filler" "8/28/2022" "13:10" "right" 1 7289.104 1 "2018-06-28" "English" NA NA "female" "Pre" "DO" "NonPred" "New_bis"
"BdGSOufSBwUolVRT3rOkCuppF" 2 "3FillerPre2" "The_girl_will_move_the_hat_to_the_table" "Can_you_move_the_hat_to_the_table?" "left" "right" "pretest_filler" "8/28/2022" "13:10" "left" 1 5811.104 2 "2018-06-28" "English" NA NA "female" "Pre" "DO" "NonPred" "New_bis"
"BdGSOufSBwUolVRT3rOkCuppF" 3 "1FillerPre2" "Peppa_pig_will_bounce_the_ball_with_the_bat" "Can_you_bounce_the_ball_with_the_bat?" "left" "right" "pretest_filler" "8/28/2022" "13:10" "left" 1 3915.104 1 "2018-06-28" "English" NA NA "female" "Pre" "DO" "NonPred" "New_bis"
"BdGSOufSBwUolVRT3rOkCuppF" 4 "1Pre2" "The_boy_will_bring_the_giraffe_a_cake" "Can_you_bring_the_giraffe_the_cake?" "right" "left" "pretest" "8/28/2022" "13:10" "left" 0 5530.104 1 "2018-06-28" "English" NA NA "female" "Pre" "DO" "NonPred" "New_bis"
"BdGSOufSBwUolVRT3rOkCuppF" 5 "3Pre2" "Peppa_Pig_will_send_the_hamster_a_toy" "Can_you_send_the_hamster_the_toy?" "right" "left" "pretest" "8/28/2022" "13:10" "right" 1 2639.104 1 "2018-06-28" "English" NA NA "female" "Pre" "DO" "NonPred" "New_bis"
"BdGSOufSBwUolVRT3rOkCuppF" 6 "4FillerPre2" "The_king_will_poke_the_jelly_with_the_fork" "Can_you_poke_the_jelly_with_the_fork?" "left" "right" "pretest_filler" "8/28/2022" "13:10" "left" 1 3706.104 1 "2018-06-28" "English" NA NA "female" "Pre" "DO" "NonPred" "New_bis"
"BdGSOufSBwUolVRT3rOkCuppF" 7 "2Pre2" "The_girl_will_throw_the_elephant_a_clock" "Can_you_throw_the_elephant_the_clock?" "left" "right" "pretest" "8/28/2022" "13:10" "left" 1 3146.104 1 "2018-06-28" "English" NA NA "female" "Pre" "DO" "NonPred" "New_bis"
"BdGSOufSBwUolVRT3rOkCuppF" 8 "4Pre2" "The_king_will_throw_the_turtle_a_squirrel" "Can_you_throw_the_turtle_the_squirrel?" "right" "left" "pretest" "8/28/2022" "13:10" "right" 1 2134.104 1 "2018-06-28" "English" NA NA "female" "Pre" "DO" "NonPred" "New_bis"
"BdGSOufSBwUolVRT3rOkCuppF" 9 "6Pre2" "Emily_elephant_will_bring_the_mouse_a_rabbit" "Can_you_bring_the_mouse_the_rabbit?" "right" "left" "pretest" "8/28/2022" "13:10" "left" 0 2064.104 1 "2018-06-28" "English" NA NA "female" "Pre" "DO" "NonPred" "New_bis"
"BdGSOufSBwUolVRT3rOkCuppF" 10 "5Pre2" "The_queen_will_send_the_monkey_a_horse" "Can_you_send_the_monkey_the_horse?" "left" "right" "pretest" "8/28/2022" "13:10" "right" 0 2728.104 1 "2018-06-28" "English" NA NA "female" "Pre" "DO" "NonPred" "New_bis"
"C7NdE4AywSmrlfVdT853HysYt" 1 "2FillerPre2" "The_boy_will_put_the_train_in_the_box" "Can_you_put_the_train_in_the_box?" "right" "left" "pretest_filler" "2/4/2022" "15:36" "right" 1 3280.104 1 "2017-05-09" "English" NA NA "male" "Post" "PO" "NonPred" "New_bis"
"C7NdE4AywSmrlfVdT853HysYt" 2 "3FillerPre2" "The_girl_will_move_the_hat_to_the_table" "Can_you_move_the_hat_to_the_table?" "left" "right" "pretest_filler" "2/4/2022" "15:36" "left" 1 1585.104 1 "2017-05-09" "English" NA NA "male" "Post" "PO" "NonPred" "New_bis"
"C7NdE4AywSmrlfVdT853HysYt" 3 "1Post2" "The_boy_will_send_the_tiger_a_present" "Can_you_send_the_tiger_the_present?" "right" "left" "posttest" "2/4/2022" "15:36" "right" 1 3285.104 1 "2017-05-09" "English" NA NA "male" "Post" "PO" "NonPred" "New_bis"
"C7NdE4AywSmrlfVdT853HysYt" 4 "3post2" "Boots_will_throw_the_giraffe_a_balloon" "Can_you_throw_the_giraffe_the_balloon?" "left" "right" "posttest" "2/4/2022" "15:36" "left" 1 9539.104 1 "2017-05-09" "English" NA NA "male" "Post" "PO" "NonPred" "New_bis"
"C7NdE4AywSmrlfVdT853HysYt" 5 "4Post2" "The_princess_will_send_the_lion_a_crocodile" "Can_you_send_the_lion_the_crocodile?" "right" "left" "posttest" "2/4/2022" "15:36" "right" 1 2704.104 1 "2017-05-09" "English" NA NA "male" "Post" "PO" "NonPred" "New_bis"
"C7NdE4AywSmrlfVdT853HysYt" 6 "2post2" "The_girl_will_bring_the_horse_an_ice_cream" "Can_you_bring_the_horse_the_ice_cream?" "right" "left" "posttest" "2/4/2022" "15:36" "right" 1 2084.104 1 "2017-05-09" "English" NA NA "male" "Post" "PO" "NonPred" "New_bis"
"C7NdE4AywSmrlfVdT853HysYt" 7 "1fillerpost2" "The_princess_will_tickle_the_teddy_bear_with_the_feather" "Can_you_tickle_the_teddy_bear_with_the_feather?" "right" "left" "posttest_filler" "2/4/2022" "15:36" "right" 1 2735.104 1 "2017-05-09" "English" NA NA "male" "Post" "PO" "NonPred" "New_bis"
"C7NdE4AywSmrlfVdT853HysYt" 8 "6post2" "Dora_the_explorer_will_throw_the_puppy_a_hamster" "Can_you_throw_puppy_the_hamster?" "left" "right" "posttest" "2/4/2022" "15:36" "right" 0 2848.104 1 "2017-05-09" "English" NA NA "male" "Post" "PO" "NonPred" "New_bis"
"C7NdE4AywSmrlfVdT853HysYt" 9 "2fillerpost2" "Boots_will_clean_the_chair_with_the_sponge" "Can_you_clean_the_chair_with_the_sponge?" "left" "right" "posttest_filler" "2/4/2022" "15:36" "left" 1 1081.104 1 "2017-05-09" "English" NA NA "male" "Post" "PO" "NonPred" "New_bis"
"C7NdE4AywSmrlfVdT853HysYt" 10 "5post2" "The_prince_will_bring_the_turtle_a_cat" "Can_you_bring_the_turtle_the_cat?" "left" "right" "posttest" "2/4/2022" "15:36" "left" 1 1419.104 1 "2017-05-09" "English" NA NA "male" "Post" "PO" "NonPred" "New_bis"
"d1ktpSfErH4wddABU1quVIeib" 1 "2FillerPre2" "The_boy_will_put_the_train_in_the_box" "Can_you_put_the_train_in_the_box?" "right" "left" "pretest_filler" "11/30/2021" "16:13" "right" 1 1005.104 1 "2016-12-18" "English" "Welsh" NA "male" "Pre" "PO" "NonPred" "New_bis"
"d1ktpSfErH4wddABU1quVIeib" 2 "3FillerPre2" "The_girl_will_move_the_hat_to_the_table" "Can_you_move_the_hat_to_the_table?" "left" "right" "pretest_filler" "11/30/2021" "16:13" "left" 1 1122.104 1 "2016-12-18" "English" "Welsh" NA "male" "Pre" "PO" "NonPred" "New_bis"
"d1ktpSfErH4wddABU1quVIeib" 3 "1Pre2" "The_boy_will_bring_the_giraffe_a_cake" "Can_you_bring_the_giraffe_the_cake?" "left" "right" "pretest" "11/30/2021" "16:13" "left" 1 1339.104 1 "2016-12-18" "English" "Welsh" NA "male" "Pre" "PO" "NonPred" "New_bis"
"d1ktpSfErH4wddABU1quVIeib" 4 "4FillerPre2" "The_king_will_poke_the_jelly_with_the_fork" "Can_you_poke_the_jelly_with_the_fork?" "left" "right" "pretest_filler" "11/30/2021" "16:13" "left" 1 1825.104 1 "2016-12-18" "English" "Welsh" NA "male" "Pre" "PO" "NonPred" "New_bis"
"d1ktpSfErH4wddABU1quVIeib" 5 "2Pre2" "The_girl_will_throw_the_elephant_a_clock" "Can_you_throw_the_elephant_the_clock?" "right" "left" "pretest" "11/30/2021" "16:13" "left" 0 10632.104 1 "2016-12-18" "English" "Welsh" NA "male" "Pre" "PO" "NonPred" "New_bis"
"d1ktpSfErH4wddABU1quVIeib" 6 "6Pre2" "Emily_elephant_will_bring_the_mouse_a_rabbit" "Can_you_bring_the_mouse_the_rabbit?" "left" "right" "pretest" "11/30/2021" "16:13" "left" 1 1582.104 1 "2016-12-18" "English" "Welsh" NA "male" "Pre" "PO" "NonPred" "New_bis"
"d1ktpSfErH4wddABU1quVIeib" 7 "5Pre2" "The_queen_will_send_the_monkey_a_horse" "Can_you_send_the_monkey_the_horse?" "right" "left" "pretest" "11/30/2021" "16:13" "left" 0 10151.104 1 "2016-12-18" "English" "Welsh" NA "male" "Pre" "PO" "NonPred" "New_bis"
"d1ktpSfErH4wddABU1quVIeib" 8 "4Pre2" "The_king_will_throw_the_turtle_a_squirrel" "Can_you_throw_the_turtle_the_squirrel?" "right" "left" "pretest" "11/30/2021" "16:13" "left" 0 3632.104 1 "2016-12-18" "English" "Welsh" NA "male" "Pre" "PO" "NonPred" "New_bis"
"d1ktpSfErH4wddABU1quVIeib" 9 "3Pre2" "Peppa_Pig_will_send_the_hamster_a_toy" "Can_you_send_the_hamster_the_toy?" "right" "left" "pretest" "11/30/2021" "16:13" "left" 0 1426.104 1 "2016-12-18" "English" "Welsh" NA "male" "Pre" "PO" "NonPred" "New_bis"
"d1ktpSfErH4wddABU1quVIeib" 10 "1FillerPre2" "Peppa_pig_will_bounce_the_ball_with_the_bat" "Can_you_bounce_the_ball_with_the_bat?" "left" "right" "pretest_filler" "11/30/2021" "16:13" "left" 1 2346.104 1 "2016-12-18" "English" "Welsh" NA "male" "Pre" "PO" "NonPred" "New_bis"
"EHn84mcF7lpjQ0uR89Bzd0cEQ" 1 "2FillerPre2" "The_boy_will_put_the_train_in_the_box" "Can_you_put_the_train_in_the_box?" "right" "left" "pretest_filler" "3/1/2022" "11:59" "right" 1 1549.104 1 "2017-11-17" "English" NA NA "male" "Pre" "DO" "NonPred" "New_bis"
"EHn84mcF7lpjQ0uR89Bzd0cEQ" 2 "3FillerPre2" "The_girl_will_move_the_hat_to_the_table" "Can_you_move_the_hat_to_the_table?" "left" "right" "pretest_filler" "3/1/2022" "11:59" "left" 1 3974.104 1 "2017-11-17" "English" NA NA "male" "Pre" "DO" "NonPred" "New_bis"
"EHn84mcF7lpjQ0uR89Bzd0cEQ" 3 "3Pre2" "Peppa_Pig_will_send_the_hamster_a_toy" "Can_you_send_the_hamster_the_toy?" "right" "left" "pretest" "3/1/2022" "11:59" "right" 1 4104.104 1 "2017-11-17" "English" NA NA "male" "Pre" "DO" "NonPred" "New_bis"
"EHn84mcF7lpjQ0uR89Bzd0cEQ" 4 "4Pre2" "The_king_will_throw_the_turtle_a_squirrel" "Can_you_throw_the_turtle_the_squirrel?" "right" "left" "pretest" "3/1/2022" "11:59" "right" 1 2855.104 1 "2017-11-17" "English" NA NA "male" "Pre" "DO" "NonPred" "New_bis"
"EHn84mcF7lpjQ0uR89Bzd0cEQ" 5 "6Pre2" "Emily_elephant_will_bring_the_mouse_a_rabbit" "Can_you_bring_the_mouse_the_rabbit?" "right" "left" "pretest" "3/1/2022" "11:59" "right" 1 4088.104 1 "2017-11-17" "English" NA NA "male" "Pre" "DO" "NonPred" "New_bis"
"EHn84mcF7lpjQ0uR89Bzd0cEQ" 6 "2Pre2" "The_girl_will_throw_the_elephant_a_clock" "Can_you_throw_the_elephant_the_clock?" "left" "right" "pretest" "3/1/2022" "11:59" "right" 0 2672.104 1 "2017-11-17" "English" NA NA "male" "Pre" "DO" "NonPred" "New_bis"
"EHn84mcF7lpjQ0uR89Bzd0cEQ" 7 "1Pre2" "The_boy_will_bring_the_giraffe_a_cake" "Can_you_bring_the_giraffe_the_cake?" "left" "right" "pretest" "3/1/2022" "11:59" "right" 0 6324.104 1 "2017-11-17" "English" NA NA "male" "Pre" "DO" "NonPred" "New_bis"
"EHn84mcF7lpjQ0uR89Bzd0cEQ" 8 "4FillerPre2" "The_king_will_poke_the_jelly_with_the_fork" "Can_you_poke_the_jelly_with_the_fork?" "right" "left" "pretest_filler" "3/1/2022" "11:59" "right" 1 3669.104 1 "2017-11-17" "English" NA NA "male" "Pre" "DO" "NonPred" "New_bis"
"EHn84mcF7lpjQ0uR89Bzd0cEQ" 9 "5Pre2" "The_queen_will_send_the_monkey_a_horse" "Can_you_send_the_monkey_the_horse?" "left" "right" "pretest" "3/1/2022" "11:59" "right" 0 10920.104 1 "2017-11-17" "English" NA NA "male" "Pre" "DO" "NonPred" "New_bis"
"EHn84mcF7lpjQ0uR89Bzd0cEQ" 10 "1FillerPre2" "Peppa_pig_will_bounce_the_ball_with_the_bat" "Can_you_bounce_the_ball_with_the_bat?" "left" "right" "pretest_filler" "3/1/2022" "11:59" "left" 1 3655.104 1 "2017-11-17" "English" NA NA "male" "Pre" "DO" "NonPred" "New_bis"
"FKOWco7JzGGNUisILwXUWCJMZ" 1 "2FillerPre2" "The_boy_will_put_the_train_in_the_box" "Can_you_put_the_train_in_the_box?" "right" "left" "pretest_filler" "8/24/2022" "11:10" "right" 1 1521.104 1 NA "English " "Na" "Na" "female" "Post" "DO" "NonPred" "New_bis"
"FKOWco7JzGGNUisILwXUWCJMZ" 2 "3FillerPre2" "The_girl_will_move_the_hat_to_the_table" "Can_you_move_the_hat_to_the_table?" "left" "right" "pretest_filler" "8/24/2022" "11:10" "left" 1 2462.104 1 NA "English " "Na" "Na" "female" "Post" "DO" "NonPred" "New_bis"
"FKOWco7JzGGNUisILwXUWCJMZ" 3 "5post2" "The_prince_will_bring_the_turtle_a_cat" "Can_you_bring_the_turtle_the_cat?" "left" "right" "posttest" "8/24/2022" "11:10" "right" 0 7881.104 1 NA "English " "Na" "Na" "female" "Post" "DO" "NonPred" "New_bis"
"FKOWco7JzGGNUisILwXUWCJMZ" 4 "1fillerpost2" "The_princess_will_tickle_the_teddy_bear_with_the_feather" "Can_you_tickle_the_teddy_bear_with_the_feather?" "left" "right" "posttest_filler" "8/24/2022" "11:10" "left" 1 4290.104 1 NA "English " "Na" "Na" "female" "Post" "DO" "NonPred" "New_bis"
"FKOWco7JzGGNUisILwXUWCJMZ" 5 "4Post2" "The_princess_will_send_the_lion_a_crocodile" "Can_you_send_the_lion_the_crocodile?" "right" "left" "posttest" "8/24/2022" "11:10" "left" 0 3632.104 1 NA "English " "Na" "Na" "female" "Post" "DO" "NonPred" "New_bis"
"FKOWco7JzGGNUisILwXUWCJMZ" 6 "2fillerpost2" "Boots_will_clean_the_chair_with_the_sponge" "Can_you_clean_the_chair_with_the_sponge?" "right" "left" "posttest_filler" "8/24/2022" "11:10" "right" 1 2562.104 1 NA "English " "Na" "Na" "female" "Post" "DO" "NonPred" "New_bis"
"FKOWco7JzGGNUisILwXUWCJMZ" 7 "3post2" "Boots_will_throw_the_giraffe_a_balloon" "Can_you_throw_the_giraffe_the_balloon?" "right" "left" "posttest" "8/24/2022" "11:10" "left" 0 3873.104 1 NA "English " "Na" "Na" "female" "Post" "DO" "NonPred" "New_bis"
"FKOWco7JzGGNUisILwXUWCJMZ" 8 "6post2" "Dora_the_explorer_will_throw_the_puppy_a_hamster" "Can_you_throw_puppy_the_hamster?" "left" "right" "posttest" "8/24/2022" "11:10" "right" 0 2543.104 1 NA "English " "Na" "Na" "female" "Post" "DO" "NonPred" "New_bis"
"FKOWco7JzGGNUisILwXUWCJMZ" 9 "1Post2" "The_boy_will_send_the_tiger_a_present" "Can_you_send_the_tiger_the_present?" "left" "right" "posttest" "8/24/2022" "11:10" "right" 0 1449.104 1 NA "English " "Na" "Na" "female" "Post" "DO" "NonPred" "New_bis"
"FKOWco7JzGGNUisILwXUWCJMZ" 10 "2post2" "The_girl_will_bring_the_horse_an_ice_cream" "Can_you_bring_the_horse_the_ice_cream?" "right" "left" "posttest" "8/24/2022" "11:10" "left" 0 1282.104 1 NA "English " "Na" "Na" "female" "Post" "DO" "NonPred" "New_bis"
"HvX7yFi9aEQokrzpGQf6BLTFO" 1 "2FillerPre2" "The_boy_will_put_the_train_in_the_box" "Can_you_put_the_train_in_the_box?" "right" "left" "pretest_filler" "12/23/2021" "14:31" "right" 1 1920.104 1 "2017-01-30" "English" NA NA "male" "Pre" "DO" "Pred" "New_bis"
"HvX7yFi9aEQokrzpGQf6BLTFO" 2 "3FillerPre2" "The_girl_will_move_the_hat_to_the_table" "Can_you_move_the_hat_to_the_table?" "left" "right" "pretest_filler" "12/23/2021" "14:31" "left" 1 2109.104 1 "2017-01-30" "English" NA NA "male" "Pre" "DO" "Pred" "New_bis"
"HvX7yFi9aEQokrzpGQf6BLTFO" 3 "4Pre2" "The_king_will_throw_the_turtle_a_squirrel" "Can_you_throw_the_turtle_the_squirrel?" "left" "right" "pretest" "12/23/2021" "14:31" "left" 1 20734.104 1 "2017-01-30" "English" NA NA "male" "Pre" "DO" "Pred" "New_bis"
"HvX7yFi9aEQokrzpGQf6BLTFO" 4 "4FillerPre2" "The_king_will_poke_the_jelly_with_the_fork" "Can_you_poke_the_jelly_with_the_fork?" "right" "left" "pretest_filler" "12/23/2021" "14:31" "right" 1 2028.104 1 "2017-01-30" "English" NA NA "male" "Pre" "DO" "Pred" "New_bis"
"HvX7yFi9aEQokrzpGQf6BLTFO" 5 "6Pre2" "Emily_elephant_will_bring_the_mouse_a_rabbit" "Can_you_bring_the_mouse_the_rabbit?" "left" "right" "pretest" "12/23/2021" "14:31" "right" 0 2480.104 1 "2017-01-30" "English" NA NA "male" "Pre" "DO" "Pred" "New_bis"
"HvX7yFi9aEQokrzpGQf6BLTFO" 6 "2Pre2" "The_girl_will_throw_the_elephant_a_clock" "Can_you_throw_the_elephant_the_clock?" "left" "right" "pretest" "12/23/2021" "14:31" "right" 0 4443.104 1 "2017-01-30" "English" NA NA "male" "Pre" "DO" "Pred" "New_bis"
"HvX7yFi9aEQokrzpGQf6BLTFO" 7 "1Pre2" "The_boy_will_bring_the_giraffe_a_cake" "Can_you_bring_the_giraffe_the_cake?" "left" "right" "pretest" "12/23/2021" "14:31" "left" 1 3295.104 1 "2017-01-30" "English" NA NA "male" "Pre" "DO" "Pred" "New_bis"
"HvX7yFi9aEQokrzpGQf6BLTFO" 8 "1FillerPre2" "Peppa_pig_will_bounce_the_ball_with_the_bat" "Can_you_bounce_the_ball_with_the_bat?" "right" "left" "pretest_filler" "12/23/2021" "14:31" "left" 0 2149.104 1 "2017-01-30" "English" NA NA "male" "Pre" "DO" "Pred" "New_bis"
"HvX7yFi9aEQokrzpGQf6BLTFO" 9 "5Pre2" "The_queen_will_send_the_monkey_a_horse" "Can_you_send_the_monkey_the_horse?" "right" "left" "pretest" "12/23/2021" "14:31" "left" 0 3140.104 1 "2017-01-30" "English" NA NA "male" "Pre" "DO" "Pred" "New_bis"
"HvX7yFi9aEQokrzpGQf6BLTFO" 10 "3Pre2" "Peppa_Pig_will_send_the_hamster_a_toy" "Can_you_send_the_hamster_the_toy?" "right" "left" "pretest" "12/23/2021" "14:31" "right" 1 3947.104 1 "2017-01-30" "English" NA NA "male" "Pre" "DO" "Pred" "New_bis"
"IH45juG3hcxSu3Lbax7Km1Erd" 1 "2FillerPre2" "The_boy_will_put_the_train_in_the_box" "Can_you_put_the_train_in_the_box?" "right" "left" "pretest_filler" "7/28/2022" "15:36" "right" 1 2398.104 1 "2018-07-18" "English " "Na" "Na" "male" "Pre" "DO" "Pred" "New_bis"
"IH45juG3hcxSu3Lbax7Km1Erd" 2 "3FillerPre2" "The_girl_will_move_the_hat_to_the_table" "Can_you_move_the_hat_to_the_table?" "left" "right" "pretest_filler" "7/28/2022" "15:36" "left" 1 1847.104 1 "2018-07-18" "English " "Na" "Na" "male" "Pre" "DO" "Pred" "New_bis"
"IH45juG3hcxSu3Lbax7Km1Erd" 3 "2Pre2" "The_girl_will_throw_the_elephant_a_clock" "Can_you_throw_the_elephant_the_clock?" "left" "right" "pretest" "7/28/2022" "15:36" "right" 0 6125.104 1 "2018-07-18" "English " "Na" "Na" "male" "Pre" "DO" "Pred" "New_bis"
"IH45juG3hcxSu3Lbax7Km1Erd" 4 "1FillerPre2" "Peppa_pig_will_bounce_the_ball_with_the_bat" "Can_you_bounce_the_ball_with_the_bat?" "right" "left" "pretest_filler" "7/28/2022" "15:36" "left" 0 10353.104 1 "2018-07-18" "English " "Na" "Na" "male" "Pre" "DO" "Pred" "New_bis"
"IH45juG3hcxSu3Lbax7Km1Erd" 5 "4FillerPre2" "The_king_will_poke_the_jelly_with_the_fork" "Can_you_poke_the_jelly_with_the_fork?" "right" "left" "pretest_filler" "7/28/2022" "15:36" "right" 1 3441.104 1 "2018-07-18" "English " "Na" "Na" "male" "Pre" "DO" "Pred" "New_bis"
"IH45juG3hcxSu3Lbax7Km1Erd" 6 "4Pre2" "The_king_will_throw_the_turtle_a_squirrel" "Can_you_throw_the_turtle_the_squirrel?" "right" "left" "pretest" "7/28/2022" "15:36" "left" 0 1888.104 2 "2018-07-18" "English " "Na" "Na" "male" "Pre" "DO" "Pred" "New_bis"
"IH45juG3hcxSu3Lbax7Km1Erd" 7 "3Pre2" "Peppa_Pig_will_send_the_hamster_a_toy" "Can_you_send_the_hamster_the_toy?" "left" "right" "pretest" "7/28/2022" "15:36" "left" 1 2876.104 1 "2018-07-18" "English " "Na" "Na" "male" "Pre" "DO" "Pred" "New_bis"
"IH45juG3hcxSu3Lbax7Km1Erd" 8 "5Pre2" "The_queen_will_send_the_monkey_a_horse" "Can_you_send_the_monkey_the_horse?" "left" "right" "pretest" "7/28/2022" "15:36" "right" 0 7245.104 1 "2018-07-18" "English " "Na" "Na" "male" "Pre" "DO" "Pred" "New_bis"
"IH45juG3hcxSu3Lbax7Km1Erd" 9 "1Pre2" "The_boy_will_bring_the_giraffe_a_cake" "Can_you_bring_the_giraffe_the_cake?" "left" "right" "pretest" "7/28/2022" "15:36" "right" 0 1078.104 1 "2018-07-18" "English " "Na" "Na" "male" "Pre" "DO" "Pred" "New_bis"
"IH45juG3hcxSu3Lbax7Km1Erd" 10 "6Pre2" "Emily_elephant_will_bring_the_mouse_a_rabbit" "Can_you_bring_the_mouse_the_rabbit?" "right" "left" "pretest" "7/28/2022" "15:36" "left" 0 1593.104 1 "2018-07-18" "English " "Na" "Na" "male" "Pre" "DO" "Pred" "New_bis"
"JPgnNXCDmCC66mTt1QQMDoaas" 1 "2FillerPre2" "The_boy_will_put_the_train_in_the_box" "Can_you_put_the_train_in_the_box?" "right" "left" "pretest_filler" "2/22/2022" "11:09" "right" 1 818.103999999999 1 "2022-02-22" "English" NA NA "male" "Pre" "DO" "Pred" "New_bis"
"JPgnNXCDmCC66mTt1QQMDoaas" 2 "3FillerPre2" "The_girl_will_move_the_hat_to_the_table" "Can_you_move_the_hat_to_the_table?" "left" "right" "pretest_filler" "2/22/2022" "11:09" "left" 1 1835.104 1 "2022-02-22" "English" NA NA "male" "Pre" "DO" "Pred" "New_bis"
"JPgnNXCDmCC66mTt1QQMDoaas" 3 "4FillerPre2" "The_king_will_poke_the_jelly_with_the_fork" "Can_you_poke_the_jelly_with_the_fork?" "right" "left" "pretest_filler" "2/22/2022" "11:09" "right" 1 4116.104 1 "2022-02-22" "English" NA NA "male" "Pre" "DO" "Pred" "New_bis"
"JPgnNXCDmCC66mTt1QQMDoaas" 4 "6Pre2" "Emily_elephant_will_bring_the_mouse_a_rabbit" "Can_you_bring_the_mouse_the_rabbit?" "left" "right" "pretest" "2/22/2022" "11:09" "right" 0 1158.104 1 "2022-02-22" "English" NA NA "male" "Pre" "DO" "Pred" "New_bis"
"JPgnNXCDmCC66mTt1QQMDoaas" 5 "3Pre2" "Peppa_Pig_will_send_the_hamster_a_toy" "Can_you_send_the_hamster_the_toy?" "left" "right" "pretest" "2/22/2022" "11:09" "left" 1 4470.104 1 "2022-02-22" "English" NA NA "male" "Pre" "DO" "Pred" "New_bis"
"JPgnNXCDmCC66mTt1QQMDoaas" 6 "1Pre2" "The_boy_will_bring_the_giraffe_a_cake" "Can_you_bring_the_giraffe_the_cake?" "right" "left" "pretest" "2/22/2022" "11:09" "right" 1 3562.104 1 "2022-02-22" "English" NA NA "male" "Pre" "DO" "Pred" "New_bis"
"JPgnNXCDmCC66mTt1QQMDoaas" 7 "5Pre2" "The_queen_will_send_the_monkey_a_horse" "Can_you_send_the_monkey_the_horse?" "left" "right" "pretest" "2/22/2022" "11:09" "left" 1 4153.104 1 "2022-02-22" "English" NA NA "male" "Pre" "DO" "Pred" "New_bis"
"JPgnNXCDmCC66mTt1QQMDoaas" 8 "1FillerPre2" "Peppa_pig_will_bounce_the_ball_with_the_bat" "Can_you_bounce_the_ball_with_the_bat?" "right" "left" "pretest_filler" "2/22/2022" "11:09" "right" 1 2295.104 1 "2022-02-22" "English" NA NA "male" "Pre" "DO" "Pred" "New_bis"
"JPgnNXCDmCC66mTt1QQMDoaas" 9 "4Pre2" "The_king_will_throw_the_turtle_a_squirrel" "Can_you_throw_the_turtle_the_squirrel?" "right" "left" "pretest" "2/22/2022" "11:09" "right" 1 1750.104 1 "2022-02-22" "English" NA NA "male" "Pre" "DO" "Pred" "New_bis"
"JPgnNXCDmCC66mTt1QQMDoaas" 10 "2Pre2" "The_girl_will_throw_the_elephant_a_clock" "Can_you_throw_the_elephant_the_clock?" "left" "right" "pretest" "2/22/2022" "11:09" "left" 1 4027.104 1 "2022-02-22" "English" NA NA "male" "Pre" "DO" "Pred" "New_bis"
"pNsQc79CvDmKcwxd8oqMJ9rzO" 1 "2FillerPre2" "The_boy_will_put_the_train_in_the_box" "Can_you_put_the_train_in_the_box?" "right" "left" "pretest_filler" "5/17/2022" "10:48" "right" 1 1861.104 1 NA "English " NA NA "female" "Pre" "PO" "NonPred" "New_bis"
"pNsQc79CvDmKcwxd8oqMJ9rzO" 2 "3FillerPre2" "The_girl_will_move_the_hat_to_the_table" "Can_you_move_the_hat_to_the_table?" "left" "right" "pretest_filler" "5/17/2022" "10:48" "left" 1 984.103999999999 1 NA "English " NA NA "female" "Pre" "PO" "NonPred" "New_bis"
"pNsQc79CvDmKcwxd8oqMJ9rzO" 3 "4FillerPre2" "The_king_will_poke_the_jelly_with_the_fork" "Can_you_poke_the_jelly_with_the_fork?" "right" "left" "pretest_filler" "5/17/2022" "10:48" "right" 1 4806.104 1 NA "English " NA NA "female" "Pre" "PO" "NonPred" "New_bis"
"pNsQc79CvDmKcwxd8oqMJ9rzO" 4 "1Pre2" "The_boy_will_bring_the_giraffe_a_cake" "Can_you_bring_the_giraffe_the_cake?" "left" "right" "pretest" "5/17/2022" "10:48" "left" 1 1247.104 1 NA "English " NA NA "female" "Pre" "PO" "NonPred" "New_bis"
"pNsQc79CvDmKcwxd8oqMJ9rzO" 5 "2Pre2" "The_girl_will_throw_the_elephant_a_clock" "Can_you_throw_the_elephant_the_clock?" "left" "right" "pretest" "5/17/2022" "10:48" "left" 1 1159.104 1 NA "English " NA NA "female" "Pre" "PO" "NonPred" "New_bis"
"pNsQc79CvDmKcwxd8oqMJ9rzO" 6 "4Pre2" "The_king_will_throw_the_turtle_a_squirrel" "Can_you_throw_the_turtle_the_squirrel?" "left" "right" "pretest" "5/17/2022" "10:48" "right" 0 1533.104 1 NA "English " NA NA "female" "Pre" "PO" "NonPred" "New_bis"
"pNsQc79CvDmKcwxd8oqMJ9rzO" 7 "3Pre2" "Peppa_Pig_will_send_the_hamster_a_toy" "Can_you_send_the_hamster_the_toy?" "right" "left" "pretest" "5/17/2022" "10:48" "right" 1 1279.104 1 NA "English " NA NA "female" "Pre" "PO" "NonPred" "New_bis"
"pNsQc79CvDmKcwxd8oqMJ9rzO" 8 "1FillerPre2" "Peppa_pig_will_bounce_the_ball_with_the_bat" "Can_you_bounce_the_ball_with_the_bat?" "right" "left" "pretest_filler" "5/17/2022" "10:48" "left" 0 1610.104 1 NA "English " NA NA "female" "Pre" "PO" "NonPred" "New_bis"
"pNsQc79CvDmKcwxd8oqMJ9rzO" 9 "5Pre2" "The_queen_will_send_the_monkey_a_horse" "Can_you_send_the_monkey_the_horse?" "left" "right" "pretest" "5/17/2022" "10:48" "left" 1 1195.104 1 NA "English " NA NA "female" "Pre" "PO" "NonPred" "New_bis"
"pNsQc79CvDmKcwxd8oqMJ9rzO" 10 "6Pre2" "Emily_elephant_will_bring_the_mouse_a_rabbit" "Can_you_bring_the_mouse_the_rabbit?" "right" "left" "pretest" "5/17/2022" "10:48" "left" 0 1121.104 1 NA "English " NA NA "female" "Pre" "PO" "NonPred" "New_bis"
"PXmhfkPC4GCdGnXAN8W9MeoYN" 1 "2FillerPre2" "The_boy_will_put_the_train_in_the_box" "Can_you_put_the_train_in_the_box?" "right" "left" "pretest_filler" "7/2/2022" "15:15" "right" 1 4965.104 1 NA NA NA NA "female" "Pre" "PO" "NonPred" "New_bis"
"PXmhfkPC4GCdGnXAN8W9MeoYN" 2 "3FillerPre2" "The_girl_will_move_the_hat_to_the_table" "Can_you_move_the_hat_to_the_table?" "left" "right" "pretest_filler" "7/2/2022" "15:15" "left" 1 3524.104 1 NA NA NA NA "female" "Pre" "PO" "NonPred" "New_bis"
"PXmhfkPC4GCdGnXAN8W9MeoYN" 3 "1FillerPre2" "Peppa_pig_will_bounce_the_ball_with_the_bat" "Can_you_bounce_the_ball_with_the_bat?" "right" "left" "pretest_filler" "7/2/2022" "15:15" "left" 0 2038.104 1 NA NA NA NA "female" "Pre" "PO" "NonPred" "New_bis"
"PXmhfkPC4GCdGnXAN8W9MeoYN" 4 "1Pre2" "The_boy_will_bring_the_giraffe_a_cake" "Can_you_bring_the_giraffe_the_cake?" "right" "left" "pretest" "7/2/2022" "15:15" "right" 1 2514.104 1 NA NA NA NA "female" "Pre" "PO" "NonPred" "New_bis"
"PXmhfkPC4GCdGnXAN8W9MeoYN" 5 "2Pre2" "The_girl_will_throw_the_elephant_a_clock" "Can_you_throw_the_elephant_the_clock?" "left" "right" "pretest" "7/2/2022" "15:15" "left" 1 4866.104 1 NA NA NA NA "female" "Pre" "PO" "NonPred" "New_bis"
"PXmhfkPC4GCdGnXAN8W9MeoYN" 6 "4Pre2" "The_king_will_throw_the_turtle_a_squirrel" "Can_you_throw_the_turtle_the_squirrel?" "left" "right" "pretest" "7/2/2022" "15:15" "right" 0 8896.104 1 NA NA NA NA "female" "Pre" "PO" "NonPred" "New_bis"
"PXmhfkPC4GCdGnXAN8W9MeoYN" 7 "5Pre2" "The_queen_will_send_the_monkey_a_horse" "Can_you_send_the_monkey_the_horse?" "left" "right" "pretest" "7/2/2022" "15:15" "right" 0 3460.104 1 NA NA NA NA "female" "Pre" "PO" "NonPred" "New_bis"
"PXmhfkPC4GCdGnXAN8W9MeoYN" 8 "3Pre2" "Peppa_Pig_will_send_the_hamster_a_toy" "Can_you_send_the_hamster_the_toy?" "right" "left" "pretest" "7/2/2022" "15:15" "right" 1 1352.104 1 NA NA NA NA "female" "Pre" "PO" "NonPred" "New_bis"
"PXmhfkPC4GCdGnXAN8W9MeoYN" 9 "4FillerPre2" "The_king_will_poke_the_jelly_with_the_fork" "Can_you_poke_the_jelly_with_the_fork?" "right" "left" "pretest_filler" "7/2/2022" "15:15" "right" 1 2557.104 1 NA NA NA NA "female" "Pre" "PO" "NonPred" "New_bis"
"PXmhfkPC4GCdGnXAN8W9MeoYN" 10 "6Pre2" "Emily_elephant_will_bring_the_mouse_a_rabbit" "Can_you_bring_the_mouse_the_rabbit?" "left" "right" "pretest" "7/2/2022" "15:15" "right" 0 1176.104 1 NA NA NA NA "female" "Pre" "PO" "NonPred" "New_bis"
"QhsX0AqkF522OaKg4ng9m3aR1" 1 "2FillerPre2" "The_boy_will_put_the_train_in_the_box" "Can_you_put_the_train_in_the_box?" "right" "left" "pretest_filler" "6/18/2022" "10:37" "right" 1 4663.104 2 "2017-09-03" "English" "Welsh" NA "male" "Post" "PO" "NonPred" "New_bis"
"QhsX0AqkF522OaKg4ng9m3aR1" 2 "3FillerPre2" "The_girl_will_move_the_hat_to_the_table" "Can_you_move_the_hat_to_the_table?" "left" "right" "pretest_filler" "6/18/2022" "10:37" "left" 1 1155.104 1 "2017-09-03" "English" "Welsh" NA "male" "Post" "PO" "NonPred" "New_bis"
"QhsX0AqkF522OaKg4ng9m3aR1" 3 "1Post2" "The_boy_will_send_the_tiger_a_present" "Can_you_send_the_tiger_the_present?" "right" "left" "posttest" "6/18/2022" "10:37" "right" 1 5035.104 1 "2017-09-03" "English" "Welsh" NA "male" "Post" "PO" "NonPred" "New_bis"
"QhsX0AqkF522OaKg4ng9m3aR1" 4 "2post2" "The_girl_will_bring_the_horse_an_ice_cream" "Can_you_bring_the_horse_the_ice_cream?" "right" "left" "posttest" "6/18/2022" "10:37" "right" 1 3521.104 1 "2017-09-03" "English" "Welsh" NA "male" "Post" "PO" "NonPred" "New_bis"
"QhsX0AqkF522OaKg4ng9m3aR1" 5 "2fillerpost2" "Boots_will_clean_the_chair_with_the_sponge" "Can_you_clean_the_chair_with_the_sponge?" "left" "right" "posttest_filler" "6/18/2022" "10:37" "left" 1 8225.104 1 "2017-09-03" "English" "Welsh" NA "male" "Post" "PO" "NonPred" "New_bis"
"QhsX0AqkF522OaKg4ng9m3aR1" 6 "1fillerpost2" "The_princess_will_tickle_the_teddy_bear_with_the_feather" "Can_you_tickle_the_teddy_bear_with_the_feather?" "right" "left" "posttest_filler" "6/18/2022" "10:37" "right" 1 9708.104 1 "2017-09-03" "English" "Welsh" NA "male" "Post" "PO" "NonPred" "New_bis"
"QhsX0AqkF522OaKg4ng9m3aR1" 7 "6post2" "Dora_the_explorer_will_throw_the_puppy_a_hamster" "Can_you_throw_puppy_the_hamster?" "left" "right" "posttest" "6/18/2022" "10:37" "right" 0 8862.104 1 "2017-09-03" "English" "Welsh" NA "male" "Post" "PO" "NonPred" "New_bis"
"QhsX0AqkF522OaKg4ng9m3aR1" 8 "3post2" "Boots_will_throw_the_giraffe_a_balloon" "Can_you_throw_the_giraffe_the_balloon?" "right" "left" "posttest" "6/18/2022" "10:37" "left" 0 2090.104 1 "2017-09-03" "English" "Welsh" NA "male" "Post" "PO" "NonPred" "New_bis"
"QhsX0AqkF522OaKg4ng9m3aR1" 9 "5post2" "The_prince_will_bring_the_turtle_a_cat" "Can_you_bring_the_turtle_the_cat?" "left" "right" "posttest" "6/18/2022" "10:37" "left" 1 6173.104 1 "2017-09-03" "English" "Welsh" NA "male" "Post" "PO" "NonPred" "New_bis"
"QhsX0AqkF522OaKg4ng9m3aR1" 10 "4Post2" "The_princess_will_send_the_lion_a_crocodile" "Can_you_send_the_lion_the_crocodile?" "left" "right" "posttest" "6/18/2022" "10:37" "right" 0 5925.104 1 "2017-09-03" "English" "Welsh" NA "male" "Post" "PO" "NonPred" "New_bis"
"racpgWbToYBvm2PZKewi1Bak0" 1 "2FillerPre2" "The_boy_will_put_the_train_in_the_box" "Can_you_put_the_train_in_the_box?" "right" "left" "pretest_filler" "12/13/2021" "15:41" "right" 1 2236.104 1 "2016-12-16" "English" "Welsh" NA "male" "Post" "PO" "NonPred" "New_bis"
"racpgWbToYBvm2PZKewi1Bak0" 2 "3FillerPre2" "The_girl_will_move_the_hat_to_the_table" "Can_you_move_the_hat_to_the_table?" "left" "right" "pretest_filler" "12/13/2021" "15:41" "left" 1 2386.104 1 "2016-12-16" "English" "Welsh" NA "male" "Post" "PO" "NonPred" "New_bis"
"racpgWbToYBvm2PZKewi1Bak0" 3 "3post2" "Boots_will_throw_the_giraffe_a_balloon" "Can_you_throw_the_giraffe_the_balloon?" "right" "left" "posttest" "12/13/2021" "15:41" "left" 0 4347.104 1 "2016-12-16" "English" "Welsh" NA "male" "Post" "PO" "NonPred" "New_bis"
"racpgWbToYBvm2PZKewi1Bak0" 4 "6post2" "Dora_the_explorer_will_throw_the_puppy_a_hamster" "Can_you_throw_puppy_the_hamster?" "left" "right" "posttest" "12/13/2021" "15:41" "right" 0 2249.104 1 "2016-12-16" "English" "Welsh" NA "male" "Post" "PO" "NonPred" "New_bis"
"racpgWbToYBvm2PZKewi1Bak0" 5 "1fillerpost2" "The_princess_will_tickle_the_teddy_bear_with_the_feather" "Can_you_tickle_the_teddy_bear_with_the_feather?" "right" "left" "posttest_filler" "12/13/2021" "15:41" "right" 1 2523.104 1 "2016-12-16" "English" "Welsh" NA "male" "Post" "PO" "NonPred" "New_bis"
"racpgWbToYBvm2PZKewi1Bak0" 6 "2post2" "The_girl_will_bring_the_horse_an_ice_cream" "Can_you_bring_the_horse_the_ice_cream?" "left" "right" "posttest" "12/13/2021" "15:41" "left" 1 1709.104 1 "2016-12-16" "English" "Welsh" NA "male" "Post" "PO" "NonPred" "New_bis"
"racpgWbToYBvm2PZKewi1Bak0" 7 "5post2" "The_prince_will_bring_the_turtle_a_cat" "Can_you_bring_the_turtle_the_cat?" "left" "right" "posttest" "12/13/2021" "15:41" "left" 1 2539.104 1 "2016-12-16" "English" "Welsh" NA "male" "Post" "PO" "NonPred" "New_bis"
"racpgWbToYBvm2PZKewi1Bak0" 8 "2fillerpost2" "Boots_will_clean_the_chair_with_the_sponge" "Can_you_clean_the_chair_with_the_sponge?" "right" "left" "posttest_filler" "12/13/2021" "15:41" "right" 1 1993.104 1 "2016-12-16" "English" "Welsh" NA "male" "Post" "PO" "NonPred" "New_bis"
"racpgWbToYBvm2PZKewi1Bak0" 9 "4Post2" "The_princess_will_send_the_lion_a_crocodile" "Can_you_send_the_lion_the_crocodile?" "right" "left" "posttest" "12/13/2021" "15:41" "right" 1 5200.104 1 "2016-12-16" "English" "Welsh" NA "male" "Post" "PO" "NonPred" "New_bis"
"racpgWbToYBvm2PZKewi1Bak0" 10 "1Post2" "The_boy_will_send_the_tiger_a_present" "Can_you_send_the_tiger_the_present?" "left" "right" "posttest" "12/13/2021" "15:41" "left" 1 5847.104 1 "2016-12-16" "English" "Welsh" NA "male" "Post" "PO" "NonPred" "New_bis"
"RemoEt3M3aIE9z07lIEvPWnHH" 1 "2FillerPre2" "The_boy_will_put_the_train_in_the_box" "Can_you_put_the_train_in_the_box?" "right" "left" "pretest_filler" "1/28/2022" "11:54" "right" 1 2740.104 1 "2022-01-28" "English " NA NA "female" "Pre" "PO" "NonPred" "New_bis"
"RemoEt3M3aIE9z07lIEvPWnHH" 2 "3FillerPre2" "The_girl_will_move_the_hat_to_the_table" "Can_you_move_the_hat_to_the_table?" "left" "right" "pretest_filler" "1/28/2022" "11:54" "left" 1 2446.104 1 "2022-01-28" "English " NA NA "female" "Pre" "PO" "NonPred" "New_bis"
"RemoEt3M3aIE9z07lIEvPWnHH" 3 "1FillerPre2" "Peppa_pig_will_bounce_the_ball_with_the_bat" "Can_you_bounce_the_ball_with_the_bat?" "left" "right" "pretest_filler" "1/28/2022" "11:54" "right" 0 15538.104 1 "2022-01-28" "English " NA NA "female" "Pre" "PO" "NonPred" "New_bis"
"RemoEt3M3aIE9z07lIEvPWnHH" 4 "4Pre2" "The_king_will_throw_the_turtle_a_squirrel" "Can_you_throw_the_turtle_the_squirrel?" "right" "left" "pretest" "1/28/2022" "11:54" "left" 0 2294.104 1 "2022-01-28" "English " NA NA "female" "Pre" "PO" "NonPred" "New_bis"
"RemoEt3M3aIE9z07lIEvPWnHH" 5 "5Pre2" "The_queen_will_send_the_monkey_a_horse" "Can_you_send_the_monkey_the_horse?" "left" "right" "pretest" "1/28/2022" "11:54" "right" 0 4358.104 1 "2022-01-28" "English " NA NA "female" "Pre" "PO" "NonPred" "New_bis"
"RemoEt3M3aIE9z07lIEvPWnHH" 6 "1Pre2" "The_boy_will_bring_the_giraffe_a_cake" "Can_you_bring_the_giraffe_the_cake?" "right" "left" "pretest" "1/28/2022" "11:54" "left" 0 1432.104 1 "2022-01-28" "English " NA NA "female" "Pre" "PO" "NonPred" "New_bis"
"RemoEt3M3aIE9z07lIEvPWnHH" 7 "6Pre2" "Emily_elephant_will_bring_the_mouse_a_rabbit" "Can_you_bring_the_mouse_the_rabbit?" "left" "right" "pretest" "1/28/2022" "11:54" "right" 0 2737.104 1 "2022-01-28" "English " NA NA "female" "Pre" "PO" "NonPred" "New_bis"
"RemoEt3M3aIE9z07lIEvPWnHH" 8 "4FillerPre2" "The_king_will_poke_the_jelly_with_the_fork" "Can_you_poke_the_jelly_with_the_fork?" "right" "left" "pretest_filler" "1/28/2022" "11:54" "left" 0 2548.104 1 "2022-01-28" "English " NA NA "female" "Pre" "PO" "NonPred" "New_bis"
"RemoEt3M3aIE9z07lIEvPWnHH" 9 "2Pre2" "The_girl_will_throw_the_elephant_a_clock" "Can_you_throw_the_elephant_the_clock?" "left" "right" "pretest" "1/28/2022" "11:54" "left" 1 4783.104 1 "2022-01-28" "English " NA NA "female" "Pre" "PO" "NonPred" "New_bis"
"RemoEt3M3aIE9z07lIEvPWnHH" 10 "3Pre2" "Peppa_Pig_will_send_the_hamster_a_toy" "Can_you_send_the_hamster_the_toy?" "right" "left" "pretest" "1/28/2022" "11:54" "left" 0 1434.104 1 "2022-01-28" "English " NA NA "female" "Pre" "PO" "NonPred" "New_bis"
"RsIri8Xvwi9DjWQsvIi1lXiUX" 1 "2FillerPre2" "The_boy_will_put_the_train_in_the_box" "Can_you_put_the_train_in_the_box?" "right" "left" "pretest_filler" "2/25/2022" "9:51" "right" 1 4370.104 1 "2018-01-04" "English" NA NA "female" "Post" "DO" "Pred" "New_bis"
"RsIri8Xvwi9DjWQsvIi1lXiUX" 2 "3FillerPre2" "The_girl_will_move_the_hat_to_the_table" "Can_you_move_the_hat_to_the_table?" "left" "right" "pretest_filler" "2/25/2022" "9:51" "left" 1 4058.104 1 "2018-01-04" "English" NA NA "female" "Post" "DO" "Pred" "New_bis"
"RsIri8Xvwi9DjWQsvIi1lXiUX" 3 "1fillerpost2" "The_princess_will_tickle_the_teddy_bear_with_the_feather" "Can_you_tickle_the_teddy_bear_with_the_feather?" "left" "right" "posttest_filler" "2/25/2022" "9:51" "left" 1 4454.104 1 "2018-01-04" "English" NA NA "female" "Post" "DO" "Pred" "New_bis"
"RsIri8Xvwi9DjWQsvIi1lXiUX" 4 "5post2" "The_prince_will_bring_the_turtle_a_cat" "Can_you_bring_the_turtle_the_cat?" "left" "right" "posttest" "2/25/2022" "9:51" "left" 1 2092.104 1 "2018-01-04" "English" NA NA "female" "Post" "DO" "Pred" "New_bis"
"RsIri8Xvwi9DjWQsvIi1lXiUX" 5 "3post2" "Boots_will_throw_the_giraffe_a_balloon" "Can_you_throw_the_giraffe_the_balloon?" "right" "left" "posttest" "2/25/2022" "9:51" "left" 0 7238.104 1 "2018-01-04" "English" NA NA "female" "Post" "DO" "Pred" "New_bis"
"RsIri8Xvwi9DjWQsvIi1lXiUX" 6 "2post2" "The_girl_will_bring_the_horse_an_ice_cream" "Can_you_bring_the_horse_the_ice_cream?" "right" "left" "posttest" "2/25/2022" "9:51" "left" 0 24372.104 1 "2018-01-04" "English" NA NA "female" "Post" "DO" "Pred" "New_bis"
"RsIri8Xvwi9DjWQsvIi1lXiUX" 7 "4Post2" "The_princess_will_send_the_lion_a_crocodile" "Can_you_send_the_lion_the_crocodile?" "right" "left" "posttest" "2/25/2022" "9:51" "left" 0 4421.104 1 "2018-01-04" "English" NA NA "female" "Post" "DO" "Pred" "New_bis"
"RsIri8Xvwi9DjWQsvIi1lXiUX" 8 "1Post2" "The_boy_will_send_the_tiger_a_present" "Can_you_send_the_tiger_the_present?" "right" "left" "posttest" "2/25/2022" "9:51" "right" 1 2671.104 1 "2018-01-04" "English" NA NA "female" "Post" "DO" "Pred" "New_bis"
"RsIri8Xvwi9DjWQsvIi1lXiUX" 9 "6post2" "Dora_the_explorer_will_throw_the_puppy_a_hamster" "Can_you_throw_puppy_the_hamster?" "left" "right" "posttest" "2/25/2022" "9:51" "right" 0 1988.104 1 "2018-01-04" "English" NA NA "female" "Post" "DO" "Pred" "New_bis"
"RsIri8Xvwi9DjWQsvIi1lXiUX" 10 "2fillerpost2" "Boots_will_clean_the_chair_with_the_sponge" "Can_you_clean_the_chair_with_the_sponge?" "left" "right" "posttest_filler" "2/25/2022" "9:51" "left" 1 3338.104 1 "2018-01-04" "English" NA NA "female" "Post" "DO" "Pred" "New_bis"
"swh6BVE7cYXxCC9N9gMCzouir" 1 "2FillerPre2" "The_boy_will_put_the_train_in_the_box" "Can_you_put_the_train_in_the_box?" "right" "left" "pretest_filler" "8/25/2022" "11:50" "right" 1 2141.104 1 NA "English" "Urdu" NA "female" "Post" "DO" "Pred" "New_bis"
"swh6BVE7cYXxCC9N9gMCzouir" 2 "3FillerPre2" "The_girl_will_move_the_hat_to_the_table" "Can_you_move_the_hat_to_the_table?" "left" "right" "pretest_filler" "8/25/2022" "11:50" "left" 1 2630.104 1 NA "English" "Urdu" NA "female" "Post" "DO" "Pred" "New_bis"
"swh6BVE7cYXxCC9N9gMCzouir" 3 "1fillerpost2" "The_princess_will_tickle_the_teddy_bear_with_the_feather" "Can_you_tickle_the_teddy_bear_with_the_feather?" "right" "left" "posttest_filler" "8/25/2022" "11:50" "right" 1 3668.104 1 NA "English" "Urdu" NA "female" "Post" "DO" "Pred" "New_bis"
"swh6BVE7cYXxCC9N9gMCzouir" 4 "4Post2" "The_princess_will_send_the_lion_a_crocodile" "Can_you_send_the_lion_the_crocodile?" "left" "right" "posttest" "8/25/2022" "11:50" "right" 0 2509.104 1 NA "English" "Urdu" NA "female" "Post" "DO" "Pred" "New_bis"
"swh6BVE7cYXxCC9N9gMCzouir" 5 "6post2" "Dora_the_explorer_will_throw_the_puppy_a_hamster" "Can_you_throw_puppy_the_hamster?" "right" "left" "posttest" "8/25/2022" "11:50" "left" 0 2875.104 1 NA "English" "Urdu" NA "female" "Post" "DO" "Pred" "New_bis"
"swh6BVE7cYXxCC9N9gMCzouir" 6 "1Post2" "The_boy_will_send_the_tiger_a_present" "Can_you_send_the_tiger_the_present?" "left" "right" "posttest" "8/25/2022" "11:50" "right" 0 1660.104 1 NA "English" "Urdu" NA "female" "Post" "DO" "Pred" "New_bis"
"swh6BVE7cYXxCC9N9gMCzouir" 7 "2fillerpost2" "Boots_will_clean_the_chair_with_the_sponge" "Can_you_clean_the_chair_with_the_sponge?" "right" "left" "posttest_filler" "8/25/2022" "11:50" "right" 1 2640.104 1 NA "English" "Urdu" NA "female" "Post" "DO" "Pred" "New_bis"
"swh6BVE7cYXxCC9N9gMCzouir" 8 "3post2" "Boots_will_throw_the_giraffe_a_balloon" "Can_you_throw_the_giraffe_the_balloon?" "left" "right" "posttest" "8/25/2022" "11:50" "right" 0 1150.104 1 NA "English" "Urdu" NA "female" "Post" "DO" "Pred" "New_bis"
"swh6BVE7cYXxCC9N9gMCzouir" 9 "5post2" "The_prince_will_bring_the_turtle_a_cat" "Can_you_bring_the_turtle_the_cat?" "left" "right" "posttest" "8/25/2022" "11:50" "right" 0 2554.104 1 NA "English" "Urdu" NA "female" "Post" "DO" "Pred" "New_bis"
"swh6BVE7cYXxCC9N9gMCzouir" 10 "2post2" "The_girl_will_bring_the_horse_an_ice_cream" "Can_you_bring_the_horse_the_ice_cream?" "right" "left" "posttest" "8/25/2022" "11:50" "left" 0 1910.104 1 NA "English" "Urdu" NA "female" "Post" "DO" "Pred" "New_bis"
"WF5BRmB3O3CAqfanjW0CkieI6" 1 "2FillerPre2" "The_boy_will_put_the_train_in_the_box" "Can_you_put_the_train_in_the_box?" "right" "left" "pretest_filler" "1/26/2022" "16:25" "right" 1 2180.104 1 "2022-01-26" "French English 50/50" NA NA "female" "Post" "PO" "Pred" "New_bis"
"WF5BRmB3O3CAqfanjW0CkieI6" 2 "3FillerPre2" "The_girl_will_move_the_hat_to_the_table" "Can_you_move_the_hat_to_the_table?" "left" "right" "pretest_filler" "1/26/2022" "16:25" "left" 1 2163.104 1 "2022-01-26" "French English 50/50" NA NA "female" "Post" "PO" "Pred" "New_bis"
"WF5BRmB3O3CAqfanjW0CkieI6" 3 "2fillerpost2" "Boots_will_clean_the_chair_with_the_sponge" "Can_you_clean_the_chair_with_the_sponge?" "left" "right" "posttest_filler" "1/26/2022" "16:25" "left" 1 1310.104 1 "2022-01-26" "French English 50/50" NA NA "female" "Post" "PO" "Pred" "New_bis"
"WF5BRmB3O3CAqfanjW0CkieI6" 4 "1Post2" "The_boy_will_send_the_tiger_a_present" "Can_you_send_the_tiger_the_present?" "left" "right" "posttest" "1/26/2022" "16:25" "left" 1 2294.104 1 "2022-01-26" "French English 50/50" NA NA "female" "Post" "PO" "Pred" "New_bis"
"WF5BRmB3O3CAqfanjW0CkieI6" 5 "1fillerpost2" "The_princess_will_tickle_the_teddy_bear_with_the_feather" "Can_you_tickle_the_teddy_bear_with_the_feather?" "right" "left" "posttest_filler" "1/26/2022" "16:25" "right" 1 1470.104 1 "2022-01-26" "French English 50/50" NA NA "female" "Post" "PO" "Pred" "New_bis"
"WF5BRmB3O3CAqfanjW0CkieI6" 6 "5post2" "The_prince_will_bring_the_turtle_a_cat" "Can_you_bring_the_turtle_the_cat?" "right" "left" "posttest" "1/26/2022" "16:25" "right" 1 2217.104 1 "2022-01-26" "French English 50/50" NA NA "female" "Post" "PO" "Pred" "New_bis"
"WF5BRmB3O3CAqfanjW0CkieI6" 7 "6post2" "Dora_the_explorer_will_throw_the_puppy_a_hamster" "Can_you_throw_puppy_the_hamster?" "left" "right" "posttest" "1/26/2022" "16:25" "left" 1 1435.104 1 "2022-01-26" "French English 50/50" NA NA "female" "Post" "PO" "Pred" "New_bis"
"WF5BRmB3O3CAqfanjW0CkieI6" 8 "3post2" "Boots_will_throw_the_giraffe_a_balloon" "Can_you_throw_the_giraffe_the_balloon?" "right" "left" "posttest" "1/26/2022" "16:25" "right" 1 882.103999999999 1 "2022-01-26" "French English 50/50" NA NA "female" "Post" "PO" "Pred" "New_bis"
"WF5BRmB3O3CAqfanjW0CkieI6" 9 "2post2" "The_girl_will_bring_the_horse_an_ice_cream" "Can_you_bring_the_horse_the_ice_cream?" "left" "right" "posttest" "1/26/2022" "16:25" "left" 1 3708.104 1 "2022-01-26" "French English 50/50" NA NA "female" "Post" "PO" "Pred" "New_bis"
"WF5BRmB3O3CAqfanjW0CkieI6" 10 "4Post2" "The_princess_will_send_the_lion_a_crocodile" "Can_you_send_the_lion_the_crocodile?" "right" "left" "posttest" "1/26/2022" "16:25" "right" 1 4616.104 1 "2022-01-26" "French English 50/50" NA NA "female" "Post" "PO" "Pred" "New_bis"
"XU3Fh7Y1UJftHoOGAb5ePNmK4" 1 "2FillerPre2" "The_boy_will_put_the_train_in_the_box" "Can_you_put_the_train_in_the_box?" "right" "left" "pretest_filler" "8/15/2022" "12:13" "right" 1 281.103999999999 3 "2022-08-15" "English" "N/A" "N/A" "male" "Post" "DO" "Pred" "New_bis"
"XU3Fh7Y1UJftHoOGAb5ePNmK4" 2 "3FillerPre2" "The_girl_will_move_the_hat_to_the_table" "Can_you_move_the_hat_to_the_table?" "left" "right" "pretest_filler" "8/15/2022" "12:13" "left" 1 6168.104 3 "2022-08-15" "English" "N/A" "N/A" "male" "Post" "DO" "Pred" "New_bis"
"XU3Fh7Y1UJftHoOGAb5ePNmK4" 3 "2post2" "The_girl_will_bring_the_horse_an_ice_cream" "Can_you_bring_the_horse_the_ice_cream?" "right" "left" "posttest" "8/15/2022" "12:13" "left" 0 2027.104 1 "2022-08-15" "English" "N/A" "N/A" "male" "Post" "DO" "Pred" "New_bis"
"XU3Fh7Y1UJftHoOGAb5ePNmK4" 4 "5post2" "The_prince_will_bring_the_turtle_a_cat" "Can_you_bring_the_turtle_the_cat?" "left" "right" "posttest" "8/15/2022" "12:13" "left" 1 3222.104 1 "2022-08-15" "English" "N/A" "N/A" "male" "Post" "DO" "Pred" "New_bis"
"XU3Fh7Y1UJftHoOGAb5ePNmK4" 5 "3post2" "Boots_will_throw_the_giraffe_a_balloon" "Can_you_throw_the_giraffe_the_balloon?" "right" "left" "posttest" "8/15/2022" "12:13" "right" 1 2254.104 2 "2022-08-15" "English" "N/A" "N/A" "male" "Post" "DO" "Pred" "New_bis"
"XU3Fh7Y1UJftHoOGAb5ePNmK4" 6 "1Post2" "The_boy_will_send_the_tiger_a_present" "Can_you_send_the_tiger_the_present?" "left" "right" "posttest" "8/15/2022" "12:13" "right" 0 3573.104 1 "2022-08-15" "English" "N/A" "N/A" "male" "Post" "DO" "Pred" "New_bis"
"XU3Fh7Y1UJftHoOGAb5ePNmK4" 7 "6post2" "Dora_the_explorer_will_throw_the_puppy_a_hamster" "Can_you_throw_puppy_the_hamster?" "left" "right" "posttest" "8/15/2022" "12:13" "right" 0 4701.104 1 "2022-08-15" "English" "N/A" "N/A" "male" "Post" "DO" "Pred" "New_bis"
"XU3Fh7Y1UJftHoOGAb5ePNmK4" 8 "2fillerpost2" "Boots_will_clean_the_chair_with_the_sponge" "Can_you_clean_the_chair_with_the_sponge?" "left" "right" "posttest_filler" "8/15/2022" "12:13" "left" 1 13463.104 1 "2022-08-15" "English" "N/A" "N/A" "male" "Post" "DO" "Pred" "New_bis"
"XU3Fh7Y1UJftHoOGAb5ePNmK4" 9 "1fillerpost2" "The_princess_will_tickle_the_teddy_bear_with_the_feather" "Can_you_tickle_the_teddy_bear_with_the_feather?" "right" "left" "posttest_filler" "8/15/2022" "12:13" "right" 1 19476.104 1 "2022-08-15" "English" "N/A" "N/A" "male" "Post" "DO" "Pred" "New_bis"
"XU3Fh7Y1UJftHoOGAb5ePNmK4" 10 "4Post2" "The_princess_will_send_the_lion_a_crocodile" "Can_you_send_the_lion_the_crocodile?" "right" "left" "posttest" "8/15/2022" "12:13" "right" 1 5848.104 1 "2022-08-15" "English" "N/A" "N/A" "male" "Post" "DO" "Pred" "New_bis"
"xuMX5QDC0rLQnujVRAYzcGbyt" 1 "2FillerPre2" "The_boy_will_put_the_train_in_the_box" "Can_you_put_the_train_in_the_box?" "right" "left" "pretest_filler" "5/15/2022" "14:20" "right" 1 7280.104 2 "2017-10-29" "English" "Welsh" NA "male" "Pre" "PO" "Pred" "New_bis"
"xuMX5QDC0rLQnujVRAYzcGbyt" 2 "3FillerPre2" "The_girl_will_move_the_hat_to_the_table" "Can_you_move_the_hat_to_the_table?" "left" "right" "pretest_filler" "5/15/2022" "14:20" "left" 1 7046.104 1 "2017-10-29" "English" "Welsh" NA "male" "Pre" "PO" "Pred" "New_bis"
"xuMX5QDC0rLQnujVRAYzcGbyt" 3 "1Pre2" "The_boy_will_bring_the_giraffe_a_cake" "Can_you_bring_the_giraffe_the_cake?" "right" "left" "pretest" "5/15/2022" "14:20" "right" 1 2644.104 1 "2017-10-29" "English" "Welsh" NA "male" "Pre" "PO" "Pred" "New_bis"
"xuMX5QDC0rLQnujVRAYzcGbyt" 4 "1FillerPre2" "Peppa_pig_will_bounce_the_ball_with_the_bat" "Can_you_bounce_the_ball_with_the_bat?" "left" "right" "pretest_filler" "5/15/2022" "14:20" "right" 0 5864.104 1 "2017-10-29" "English" "Welsh" NA "male" "Pre" "PO" "Pred" "New_bis"
"xuMX5QDC0rLQnujVRAYzcGbyt" 5 "4FillerPre2" "The_king_will_poke_the_jelly_with_the_fork" "Can_you_poke_the_jelly_with_the_fork?" "right" "left" "pretest_filler" "5/15/2022" "14:20" "right" 1 5754.104 1 "2017-10-29" "English" "Welsh" NA "male" "Pre" "PO" "Pred" "New_bis"
"xuMX5QDC0rLQnujVRAYzcGbyt" 6 "6Pre2" "Emily_elephant_will_bring_the_mouse_a_rabbit" "Can_you_bring_the_mouse_the_rabbit?" "left" "right" "pretest" "5/15/2022" "14:20" "right" 0 2851.104 1 "2017-10-29" "English" "Welsh" NA "male" "Pre" "PO" "Pred" "New_bis"
"xuMX5QDC0rLQnujVRAYzcGbyt" 7 "3Pre2" "Peppa_Pig_will_send_the_hamster_a_toy" "Can_you_send_the_hamster_the_toy?" "right" "left" "pretest" "5/15/2022" "14:20" "right" 1 3269.104 1 "2017-10-29" "English" "Welsh" NA "male" "Pre" "PO" "Pred" "New_bis"
"xuMX5QDC0rLQnujVRAYzcGbyt" 8 "2Pre2" "The_girl_will_throw_the_elephant_a_clock" "Can_you_throw_the_elephant_the_clock?" "right" "left" "pretest" "5/15/2022" "14:20" "left" 0 5882.104 1 "2017-10-29" "English" "Welsh" NA "male" "Pre" "PO" "Pred" "New_bis"
"xuMX5QDC0rLQnujVRAYzcGbyt" 9 "5Pre2" "The_queen_will_send_the_monkey_a_horse" "Can_you_send_the_monkey_the_horse?" "left" "right" "pretest" "5/15/2022" "14:20" "left" 1 4347.104 1 "2017-10-29" "English" "Welsh" NA "male" "Pre" "PO" "Pred" "New_bis"
"xuMX5QDC0rLQnujVRAYzcGbyt" 10 "4Pre2" "The_king_will_throw_the_turtle_a_squirrel" "Can_you_throw_the_turtle_the_squirrel?" "left" "right" "pretest" "5/15/2022" "14:20" "left" 1 9025.104 1 "2017-10-29" "English" "Welsh" NA "male" "Pre" "PO" "Pred" "New_bis"
