"subject_id" "trial_number" "trial_id" "target_sentence" "target_side" "other_side" "trial_type" "date_stamp" "time_stamp" "side_chosen" "accuracy" "rt" "play_counter" "order" "sentence_type" "animacy" "version"
"1ebbSRddusMUfuZicVGxXhkbI" 1 "2poup" "Tigger_will_give_the_butterfly_to_the_zebra" "right" "left" "training" "7/1/2019" "10:43" "right" 1 17463.44 1 "Pre" "PO" "NonPred" "Old"
"1ebbSRddusMUfuZicVGxXhkbI" 2 "9poup" "Dora_the_explorer_will_bring_the_cow_to_the_hippo" "right" "left" "training" "7/1/2019" "10:43" "right" 1 4641.44 1 "Pre" "PO" "NonPred" "Old"
"1ebbSRddusMUfuZicVGxXhkbI" 3 "11poup" "Marshall_will_pass_the_goat_to_the_bee" "left" "right" "training" "7/1/2019" "10:43" "left" 1 1432.44 1 "Pre" "PO" "NonPred" "Old"
"1ebbSRddusMUfuZicVGxXhkbI" 4 "5poup" "The_girl_will_pass_the_bird_to_the_sheep" "right" "left" "training" "7/1/2019" "10:43" "right" 1 6020.44 1 "Pre" "PO" "NonPred" "Old"
"1ebbSRddusMUfuZicVGxXhkbI" 5 "4poup" "George_will_send_the_fox_to_the_donkey" "left" "right" "training" "7/1/2019" "10:43" "left" 1 1810.44 1 "Pre" "PO" "NonPred" "Old"
"1ebbSRddusMUfuZicVGxXhkbI" 6 "7poup" "Bob_the_builder_will_throw_the_dog_to_the_penguin" "left" "right" "training" "7/1/2019" "10:43" "left" 1 3919.44 1 "Pre" "PO" "NonPred" "Old"
"1ebbSRddusMUfuZicVGxXhkbI" 7 "1poup" "The_boy_will_throw_the_dinosaur_to_the_bear" "left" "right" "training" "7/1/2019" "10:43" "left" 1 993.440000000001 1 "Pre" "PO" "NonPred" "Old"
"1ebbSRddusMUfuZicVGxXhkbI" 8 "3poup" "Rebecca_Rabbit_will_bring_the_frog_to_the_chicken" "right" "left" "training" "7/1/2019" "10:43" "right" 1 1247.44 1 "Pre" "PO" "NonPred" "Old"
"1ebbSRddusMUfuZicVGxXhkbI" 9 "10poup" "Boots_will_send_the_pig_to_the_caterpillar" "left" "right" "training" "7/1/2019" "10:43" "left" 1 5982.44 1 "Pre" "PO" "NonPred" "Old"
"1ebbSRddusMUfuZicVGxXhkbI" 10 "6poup" "Piglet_will_show_the_ant_to_the_fish" "left" "right" "training" "7/1/2019" "10:43" "left" 1 9198.44 1 "Pre" "PO" "NonPred" "Old"
"1ebbSRddusMUfuZicVGxXhkbI" 11 "8poup" "Chase_will_give_the_deer_to_the_kitten" "right" "left" "training" "7/1/2019" "10:43" "right" 1 6798.44 1 "Pre" "PO" "NonPred" "Old"
"1ebbSRddusMUfuZicVGxXhkbI" 12 "12poup" "Winnie_the_pooh_will_show_the_owl_to_the_duck" "right" "left" "training" "7/1/2019" "10:43" "right" 1 3673.44 1 "Pre" "PO" "NonPred" "Old"
"2GHibkOORxf1BEG7fHceuUNve" 1 "1dop" "The_boy_will_throw_the_bear_the_cheese" "left" "right" "training" "06/05/2019" "14:19" "left" 1 5583.661 1 "Post" "DO" "Pred" "Old"
"2GHibkOORxf1BEG7fHceuUNve" 2 "4dop" "George_will_send_the_donkey_the_brush" "right" "left" "training" "06/05/2019" "14:19" "right" 1 2671.661 1 "Post" "DO" "Pred" "Old"
"2GHibkOORxf1BEG7fHceuUNve" 3 "3dop" "Rebecca_Rabbit_will_bring_the_chicken_the_pencil" "left" "right" "training" "06/05/2019" "14:19" "left" 1 964.661 1 "Post" "DO" "Pred" "Old"
"2GHibkOORxf1BEG7fHceuUNve" 4 "12dop" "Winnie_the_pooh_will_show_the_duck_the_frisbee" "right" "left" "training" "06/05/2019" "14:19" "right" 1 2150.661 1 "Post" "DO" "Pred" "Old"
"2GHibkOORxf1BEG7fHceuUNve" 5 "11dop" "Marshall_will_pass_the_bee_the_gloves" "left" "right" "training" "06/05/2019" "14:19" "left" 1 1438.661 1 "Post" "DO" "Pred" "Old"
"2GHibkOORxf1BEG7fHceuUNve" 6 "8dop" "Chase_will_give_the_kitten_the_bisuit" "right" "left" "training" "06/05/2019" "14:19" "right" 1 2992.661 1 "Post" "DO" "Pred" "Old"
"2GHibkOORxf1BEG7fHceuUNve" 7 "10dop" "Boots_will_send_the_caterpillar_the_flower" "left" "right" "training" "06/05/2019" "14:19" "left" 1 1359.661 1 "Post" "DO" "Pred" "Old"
"2GHibkOORxf1BEG7fHceuUNve" 8 "5dop" "The_girl_will_pass_the_sheep_the_dress" "left" "right" "training" "06/05/2019" "14:19" "left" 1 2566.661 1 "Post" "DO" "Pred" "Old"
"2GHibkOORxf1BEG7fHceuUNve" 9 "2dop" "Tigger_will_give_the_zebra_the_bottle" "left" "right" "training" "06/05/2019" "14:19" "left" 1 838.661 1 "Post" "DO" "Pred" "Old"
"2GHibkOORxf1BEG7fHceuUNve" 10 "6dop" "Piglet_will_show_the_fish_the_plate" "right" "left" "training" "06/05/2019" "14:19" "right" 1 11575.661 1 "Post" "DO" "Pred" "Old"
"2GHibkOORxf1BEG7fHceuUNve" 11 "7dop" "Bob_the_builder_will_throw_the_penguin_the_shoe" "right" "left" "training" "06/05/2019" "14:19" "right" 1 1334.661 2 "Post" "DO" "Pred" "Old"
"2GHibkOORxf1BEG7fHceuUNve" 12 "9dop" "Dora_the_explorer_will_bring_the_hippo_the_spoon" "right" "left" "training" "06/05/2019" "14:19" "right" 1 1936.661 1 "Post" "DO" "Pred" "Old"
"2hYJmUF5jJEGGI7LxAbvsImqO" 1 "1poup" "The_boy_will_throw_the_dinosaur_to_the_bear" "right" "left" "training" "6/28/2019" "10:10" "right" 1 8621 1 "Post" "PO" "NonPred" "Old"
"2hYJmUF5jJEGGI7LxAbvsImqO" 2 "8poup" "Chase_will_give_the_deer_to_the_kitten" "right" "left" "training" "6/28/2019" "10:10" "right" 1 4979 1 "Post" "PO" "NonPred" "Old"
"2hYJmUF5jJEGGI7LxAbvsImqO" 3 "12poup" "Winnie_the_pooh_will_show_the_owl_to_the_duck" "left" "right" "training" "6/28/2019" "10:10" "left" 1 5126 1 "Post" "PO" "NonPred" "Old"
"2hYJmUF5jJEGGI7LxAbvsImqO" 4 "7poup" "Bob_the_builder_will_throw_the_dog_to_the_penguin" "right" "left" "training" "6/28/2019" "10:10" "right" 1 5084 1 "Post" "PO" "NonPred" "Old"
"2hYJmUF5jJEGGI7LxAbvsImqO" 5 "3poup" "Rebecca_Rabbit_will_bring_the_frog_to_the_chicken" "left" "right" "training" "6/28/2019" "10:10" "left" 1 4006 1 "Post" "PO" "NonPred" "Old"
"2hYJmUF5jJEGGI7LxAbvsImqO" 6 "4poup" "George_will_send_the_fox_to_the_donkey" "right" "left" "training" "6/28/2019" "10:10" "right" 1 6782 1 "Post" "PO" "NonPred" "Old"
"2hYJmUF5jJEGGI7LxAbvsImqO" 7 "11poup" "Marshall_will_pass_the_goat_to_the_bee" "left" "right" "training" "6/28/2019" "10:10" "left" 1 1952 1 "Post" "PO" "NonPred" "Old"
"2hYJmUF5jJEGGI7LxAbvsImqO" 8 "5poup" "The_girl_will_pass_the_bird_to_the_sheep" "left" "right" "training" "6/28/2019" "10:10" "left" 1 3075 1 "Post" "PO" "NonPred" "Old"
"2hYJmUF5jJEGGI7LxAbvsImqO" 9 "2poup" "Tigger_will_give_the_butterfly_to_the_zebra" "left" "right" "training" "6/28/2019" "10:10" "left" 1 4082 1 "Post" "PO" "NonPred" "Old"
"2hYJmUF5jJEGGI7LxAbvsImqO" 10 "6poup" "Piglet_will_show_the_ant_to_the_fish" "right" "left" "training" "6/28/2019" "10:10" "right" 1 5352 1 "Post" "PO" "NonPred" "Old"
"2hYJmUF5jJEGGI7LxAbvsImqO" 11 "9poup" "Dora_the_explorer_will_bring_the_cow_to_the_hippo" "left" "right" "training" "6/28/2019" "10:10" "left" 1 4897 1 "Post" "PO" "NonPred" "Old"
"2hYJmUF5jJEGGI7LxAbvsImqO" 12 "10poup" "Boots_will_send_the_pig_to_the_caterpillar" "right" "left" "training" "6/28/2019" "10:10" "right" 1 4215 1 "Post" "PO" "NonPred" "Old"
"498wbE6Ds1TB31uO9iPg2FSGC" 1 "5pop" "The_girl_will_pass_the_dress_to_the_sheep" "left" "right" "training" "6/17/2019" "11:19" "left" 1 6542.342 1 "Pre" "PO" "Pred" "Old"
"498wbE6Ds1TB31uO9iPg2FSGC" 2 "8pop" "Chase_will_give_the_biscuit_to_the_kitten" "left" "right" "training" "6/17/2019" "11:19" "left" 1 3507.342 1 "Pre" "PO" "Pred" "Old"
"498wbE6Ds1TB31uO9iPg2FSGC" 3 "2pop" "Tigger_will_give_the_bottle_to_the_zebra" "right" "left" "training" "6/17/2019" "11:19" "right" 1 3105.342 1 "Pre" "PO" "Pred" "Old"
"498wbE6Ds1TB31uO9iPg2FSGC" 4 "7pop" "Bob_the_builder_will_throw_the_shoe_to_the_penguin" "left" "right" "training" "6/17/2019" "11:19" "left" 1 5036.342 1 "Pre" "PO" "Pred" "Old"
"498wbE6Ds1TB31uO9iPg2FSGC" 5 "9pop" "Dora_the_explorer_will_bring_the_spoon_to_the_hippo" "right" "left" "training" "6/17/2019" "11:19" "right" 1 3962.342 1 "Pre" "PO" "Pred" "Old"
"498wbE6Ds1TB31uO9iPg2FSGC" 6 "6pop" "Piglet_will_show_the_plate_to_the_fish" "right" "left" "training" "6/17/2019" "11:19" "right" 1 3001.342 1 "Pre" "PO" "Pred" "Old"
"498wbE6Ds1TB31uO9iPg2FSGC" 7 "11pop" "Marshall_will_pass_the_gloves_to_the_bee" "left" "right" "training" "6/17/2019" "11:19" "left" 1 727.342 1 "Pre" "PO" "Pred" "Old"
"498wbE6Ds1TB31uO9iPg2FSGC" 8 "4pop" "George_will_send_the_brush_to_the_donkey" "left" "right" "training" "6/17/2019" "11:19" "left" 1 6206.342 1 "Pre" "PO" "Pred" "Old"
"498wbE6Ds1TB31uO9iPg2FSGC" 9 "12pop" "Winnie_the_pooh_will_show_the_frisbee_to_the_duck" "right" "left" "training" "6/17/2019" "11:19" "right" 1 3172.342 1 "Pre" "PO" "Pred" "Old"
"498wbE6Ds1TB31uO9iPg2FSGC" 10 "1pop" "The_boy_will_throw_the_cheese_to_the_bear" "left" "right" "training" "6/17/2019" "11:19" "left" 1 4631.342 1 "Pre" "PO" "Pred" "Old"
"498wbE6Ds1TB31uO9iPg2FSGC" 11 "10pop" "Boots_will_send_the_flower_to_the_caterpillar" "right" "left" "training" "6/17/2019" "11:19" "right" 1 3687.342 1 "Pre" "PO" "Pred" "Old"
"498wbE6Ds1TB31uO9iPg2FSGC" 12 "3pop" "Rebecca_Rabbit_will_bring_the_pencil_to_the_chicken" "right" "left" "training" "6/17/2019" "11:19" "right" 1 2218.342 1 "Pre" "PO" "Pred" "Old"
"61x4FnXrK9rg95OYskMdijIyJ" 1 "5pop" "The_girl_will_pass_the_dress_to_the_sheep" "right" "left" "training" "7/17/2019" "14:31" "right" 1 10803.342 1 "Post" "PO" "Pred" "Old"
"61x4FnXrK9rg95OYskMdijIyJ" 2 "3pop" "Rebecca_Rabbit_will_bring_the_pencil_to_the_chicken" "right" "left" "training" "7/17/2019" "14:31" "right" 1 1612.342 1 "Post" "PO" "Pred" "Old"
"61x4FnXrK9rg95OYskMdijIyJ" 3 "9pop" "Dora_the_explorer_will_bring_the_spoon_to_the_hippo" "left" "right" "training" "7/17/2019" "14:31" "left" 1 4024.342 1 "Post" "PO" "Pred" "Old"
"61x4FnXrK9rg95OYskMdijIyJ" 4 "8pop" "Chase_will_give_the_biscuit_to_the_kitten" "right" "left" "training" "7/17/2019" "14:31" "right" 1 1900.342 1 "Post" "PO" "Pred" "Old"
"61x4FnXrK9rg95OYskMdijIyJ" 5 "1pop" "The_boy_will_throw_the_cheese_to_the_bear" "left" "right" "training" "7/17/2019" "14:31" "left" 1 3507.342 1 "Post" "PO" "Pred" "Old"
"61x4FnXrK9rg95OYskMdijIyJ" 6 "2pop" "Tigger_will_give_the_bottle_to_the_zebra" "left" "right" "training" "7/17/2019" "14:31" "left" 1 1323.342 1 "Post" "PO" "Pred" "Old"
"61x4FnXrK9rg95OYskMdijIyJ" 7 "6pop" "Piglet_will_show_the_plate_to_the_fish" "right" "left" "training" "7/17/2019" "14:31" "right" 1 4371.342 1 "Post" "PO" "Pred" "Old"
"61x4FnXrK9rg95OYskMdijIyJ" 8 "10pop" "Boots_will_send_the_flower_to_the_caterpillar" "right" "left" "training" "7/17/2019" "14:31" "right" 1 1217.342 1 "Post" "PO" "Pred" "Old"
"61x4FnXrK9rg95OYskMdijIyJ" 9 "4pop" "George_will_send_the_brush_to_the_donkey" "right" "left" "training" "7/17/2019" "14:31" "right" 1 5916.342 1 "Post" "PO" "Pred" "Old"
"61x4FnXrK9rg95OYskMdijIyJ" 10 "11pop" "Marshall_will_pass_the_gloves_to_the_bee" "left" "right" "training" "7/17/2019" "14:31" "left" 1 1428.342 1 "Post" "PO" "Pred" "Old"
"61x4FnXrK9rg95OYskMdijIyJ" 11 "7pop" "Bob_the_builder_will_throw_the_shoe_to_the_penguin" "left" "right" "training" "7/17/2019" "14:31" "left" 1 983.342 1 "Post" "PO" "Pred" "Old"
"61x4FnXrK9rg95OYskMdijIyJ" 12 "12pop" "Winnie_the_pooh_will_show_the_frisbee_to_the_duck" "left" "right" "training" "7/17/2019" "14:31" "left" 1 1074.342 1 "Post" "PO" "Pred" "Old"
"7MSbwhpozV3MbVAdES2Ot3Yed" 1 "9poup" "Dora_the_explorer_will_bring_the_cow_to_the_hippo" "right" "left" "training" "7/17/2019" "14:12" "right" 1 7203.756 1 "Pre" "PO" "NonPred" "Old"
"7MSbwhpozV3MbVAdES2Ot3Yed" 2 "4poup" "George_will_send_the_fox_to_the_donkey" "right" "left" "training" "7/17/2019" "14:12" "right" 1 3280.756 1 "Pre" "PO" "NonPred" "Old"
"7MSbwhpozV3MbVAdES2Ot3Yed" 3 "1poup" "The_boy_will_throw_the_dinosaur_to_the_bear" "right" "left" "training" "7/17/2019" "14:12" "right" 1 2660.756 1 "Pre" "PO" "NonPred" "Old"
"7MSbwhpozV3MbVAdES2Ot3Yed" 4 "7poup" "Bob_the_builder_will_throw_the_dog_to_the_penguin" "left" "right" "training" "7/17/2019" "14:12" "left" 1 3061.756 1 "Pre" "PO" "NonPred" "Old"
"7MSbwhpozV3MbVAdES2Ot3Yed" 5 "10poup" "Boots_will_send_the_pig_to_the_caterpillar" "left" "right" "training" "7/17/2019" "14:12" "left" 1 2422.756 1 "Pre" "PO" "NonPred" "Old"
"7MSbwhpozV3MbVAdES2Ot3Yed" 6 "12poup" "Winnie_the_pooh_will_show_the_owl_to_the_duck" "right" "left" "training" "7/17/2019" "14:12" "right" 1 2621.756 1 "Pre" "PO" "NonPred" "Old"
"7MSbwhpozV3MbVAdES2Ot3Yed" 7 "5poup" "The_girl_will_pass_the_bird_to_the_sheep" "left" "right" "training" "7/17/2019" "14:12" "left" 1 2315.756 1 "Pre" "PO" "NonPred" "Old"
"7MSbwhpozV3MbVAdES2Ot3Yed" 8 "3poup" "Rebecca_Rabbit_will_bring_the_frog_to_the_chicken" "left" "right" "training" "7/17/2019" "14:12" "left" 1 413.756000000001 1 "Pre" "PO" "NonPred" "Old"
"7MSbwhpozV3MbVAdES2Ot3Yed" 9 "6poup" "Piglet_will_show_the_ant_to_the_fish" "left" "right" "training" "7/17/2019" "14:12" "left" 1 960.756000000001 1 "Pre" "PO" "NonPred" "Old"
"7MSbwhpozV3MbVAdES2Ot3Yed" 10 "8poup" "Chase_will_give_the_deer_to_the_kitten" "right" "left" "training" "7/17/2019" "14:12" "right" 1 1391.756 1 "Pre" "PO" "NonPred" "Old"
"7MSbwhpozV3MbVAdES2Ot3Yed" 11 "2poup" "Tigger_will_give_the_butterfly_to_the_zebra" "left" "right" "training" "7/17/2019" "14:12" "left" 1 1013.756 1 "Pre" "PO" "NonPred" "Old"
"7MSbwhpozV3MbVAdES2Ot3Yed" 12 "11poup" "Marshall_will_pass_the_goat_to_the_bee" "right" "left" "training" "7/17/2019" "14:12" "right" 1 860.756000000001 1 "Pre" "PO" "NonPred" "Old"
"7VD7Nx9teJprkUcPfXD2yLYyi" 1 "10poup" "Boots_will_send_the_pig_to_the_caterpillar" "right" "left" "training" "7/18/2019" "13:41" "right" 1 4026.889 1 "Post" "PO" "NonPred" "Old"
"7VD7Nx9teJprkUcPfXD2yLYyi" 2 "6poup" "Piglet_will_show_the_ant_to_the_fish" "right" "left" "training" "7/18/2019" "13:41" "right" 1 8399.889 1 "Post" "PO" "NonPred" "Old"
"7VD7Nx9teJprkUcPfXD2yLYyi" 3 "12poup" "Winnie_the_pooh_will_show_the_owl_to_the_duck" "left" "right" "training" "7/18/2019" "13:41" "left" 1 5424.889 1 "Post" "PO" "NonPred" "Old"
"7VD7Nx9teJprkUcPfXD2yLYyi" 4 "9poup" "Dora_the_explorer_will_bring_the_cow_to_the_hippo" "left" "right" "training" "7/18/2019" "13:41" "left" 1 3487.889 1 "Post" "PO" "NonPred" "Old"
"7VD7Nx9teJprkUcPfXD2yLYyi" 5 "7poup" "Bob_the_builder_will_throw_the_dog_to_the_penguin" "right" "left" "training" "7/18/2019" "13:41" "right" 1 4437.889 1 "Post" "PO" "NonPred" "Old"
"7VD7Nx9teJprkUcPfXD2yLYyi" 6 "4poup" "George_will_send_the_fox_to_the_donkey" "left" "right" "training" "7/18/2019" "13:41" "left" 1 2777.889 1 "Post" "PO" "NonPred" "Old"
"7VD7Nx9teJprkUcPfXD2yLYyi" 7 "2poup" "Tigger_will_give_the_butterfly_to_the_zebra" "left" "right" "training" "7/18/2019" "13:41" "left" 1 1868.889 1 "Post" "PO" "NonPred" "Old"
"7VD7Nx9teJprkUcPfXD2yLYyi" 8 "8poup" "Chase_will_give_the_deer_to_the_kitten" "left" "right" "training" "7/18/2019" "13:41" "left" 1 8050.889 1 "Post" "PO" "NonPred" "Old"
"7VD7Nx9teJprkUcPfXD2yLYyi" 9 "11poup" "Marshall_will_pass_the_goat_to_the_bee" "right" "left" "training" "7/18/2019" "13:41" "right" 1 1774.889 1 "Post" "PO" "NonPred" "Old"
"7VD7Nx9teJprkUcPfXD2yLYyi" 10 "3poup" "Rebecca_Rabbit_will_bring_the_frog_to_the_chicken" "right" "left" "training" "7/18/2019" "13:41" "right" 1 4551.889 1 "Post" "PO" "NonPred" "Old"
"7VD7Nx9teJprkUcPfXD2yLYyi" 11 "1poup" "The_boy_will_throw_the_dinosaur_to_the_bear" "left" "right" "training" "7/18/2019" "13:41" "left" 1 2935.889 1 "Post" "PO" "NonPred" "Old"
"7VD7Nx9teJprkUcPfXD2yLYyi" 12 "5poup" "The_girl_will_pass_the_bird_to_the_sheep" "right" "left" "training" "7/18/2019" "13:41" "right" 1 2634.889 1 "Post" "PO" "NonPred" "Old"
"8j4VM43BeCn8rJgGNRSr36Zqu" 1 "4pop" "George_will_send_the_brush_to_the_donkey" "left" "right" "training" "7/1/2019" "9:58" "left" 1 9059.414 1 "Post" "PO" "Pred" "Old"
"8j4VM43BeCn8rJgGNRSr36Zqu" 2 "9pop" "Dora_the_explorer_will_bring_the_spoon_to_the_hippo" "right" "left" "training" "7/1/2019" "9:58" "right" 1 5209.414 1 "Post" "PO" "Pred" "Old"
"8j4VM43BeCn8rJgGNRSr36Zqu" 3 "8pop" "Chase_will_give_the_biscuit_to_the_kitten" "right" "left" "training" "7/1/2019" "9:58" "right" 1 2230.414 1 "Post" "PO" "Pred" "Old"
"8j4VM43BeCn8rJgGNRSr36Zqu" 4 "5pop" "The_girl_will_pass_the_dress_to_the_sheep" "right" "left" "training" "7/1/2019" "9:58" "right" 1 2666.414 1 "Post" "PO" "Pred" "Old"
"8j4VM43BeCn8rJgGNRSr36Zqu" 5 "1pop" "The_boy_will_throw_the_cheese_to_the_bear" "left" "right" "training" "7/1/2019" "9:58" "left" 1 4599.414 1 "Post" "PO" "Pred" "Old"
"8j4VM43BeCn8rJgGNRSr36Zqu" 6 "2pop" "Tigger_will_give_the_bottle_to_the_zebra" "left" "right" "training" "7/1/2019" "9:58" "left" 1 1484.414 1 "Post" "PO" "Pred" "Old"
"8j4VM43BeCn8rJgGNRSr36Zqu" 7 "6pop" "Piglet_will_show_the_plate_to_the_fish" "right" "left" "training" "7/1/2019" "9:58" "right" 1 1925.414 1 "Post" "PO" "Pred" "Old"
"8j4VM43BeCn8rJgGNRSr36Zqu" 8 "3pop" "Rebecca_Rabbit_will_bring_the_pencil_to_the_chicken" "left" "right" "training" "7/1/2019" "9:58" "left" 1 1578.414 1 "Post" "PO" "Pred" "Old"
"8j4VM43BeCn8rJgGNRSr36Zqu" 9 "7pop" "Bob_the_builder_will_throw_the_shoe_to_the_penguin" "left" "right" "training" "7/1/2019" "9:58" "left" 1 2185.414 1 "Post" "PO" "Pred" "Old"
"8j4VM43BeCn8rJgGNRSr36Zqu" 10 "11pop" "Marshall_will_pass_the_gloves_to_the_bee" "left" "right" "training" "7/1/2019" "9:58" "left" 1 933.414000000001 1 "Post" "PO" "Pred" "Old"
"8j4VM43BeCn8rJgGNRSr36Zqu" 11 "12pop" "Winnie_the_pooh_will_show_the_frisbee_to_the_duck" "right" "left" "training" "7/1/2019" "9:58" "right" 1 2184.414 1 "Post" "PO" "Pred" "Old"
"8j4VM43BeCn8rJgGNRSr36Zqu" 12 "10pop" "Boots_will_send_the_flower_to_the_caterpillar" "right" "left" "training" "7/1/2019" "9:58" "right" 1 1195.414 1 "Post" "PO" "Pred" "Old"
"8jgAPlNrNhf7NHal2NhRU5cKP" 1 "8dop" "Chase_will_give_the_kitten_the_bisuit" "right" "left" "training" "7/8/2019" "10:40" "right" 1 2146.298 1 "Pre" "DO" "Pred" "Old"
"8jgAPlNrNhf7NHal2NhRU5cKP" 2 "3dop" "Rebecca_Rabbit_will_bring_the_chicken_the_pencil" "left" "right" "training" "7/8/2019" "10:40" "left" 1 3309.298 1 "Pre" "DO" "Pred" "Old"
"8jgAPlNrNhf7NHal2NhRU5cKP" 3 "6dop" "Piglet_will_show_the_fish_the_plate" "right" "left" "training" "7/8/2019" "10:40" "right" 1 1656.298 1 "Pre" "DO" "Pred" "Old"
"8jgAPlNrNhf7NHal2NhRU5cKP" 4 "2dop" "Tigger_will_give_the_zebra_the_bottle" "left" "right" "training" "7/8/2019" "10:40" "left" 1 1859.298 1 "Pre" "DO" "Pred" "Old"
"8jgAPlNrNhf7NHal2NhRU5cKP" 5 "1dop" "The_boy_will_throw_the_bear_the_cheese" "right" "left" "training" "7/8/2019" "10:40" "right" 1 1960.298 1 "Pre" "DO" "Pred" "Old"
"8jgAPlNrNhf7NHal2NhRU5cKP" 6 "10dop" "Boots_will_send_the_caterpillar_the_flower" "left" "right" "training" "7/8/2019" "10:40" "left" 1 4722.298 1 "Pre" "DO" "Pred" "Old"
"8jgAPlNrNhf7NHal2NhRU5cKP" 7 "11dop" "Marshall_will_pass_the_bee_the_gloves" "right" "left" "training" "7/8/2019" "10:40" "right" 1 1357.298 1 "Pre" "DO" "Pred" "Old"
"8jgAPlNrNhf7NHal2NhRU5cKP" 8 "7dop" "Bob_the_builder_will_throw_the_penguin_the_shoe" "left" "right" "training" "7/8/2019" "10:40" "left" 1 1410.298 1 "Pre" "DO" "Pred" "Old"
"8jgAPlNrNhf7NHal2NhRU5cKP" 9 "12dop" "Winnie_the_pooh_will_show_the_duck_the_frisbee" "right" "left" "training" "7/8/2019" "10:40" "right" 1 2110.298 1 "Pre" "DO" "Pred" "Old"
"8jgAPlNrNhf7NHal2NhRU5cKP" 10 "9dop" "Dora_the_explorer_will_bring_the_hippo_the_spoon" "left" "right" "training" "7/8/2019" "10:40" "left" 1 2815.298 1 "Pre" "DO" "Pred" "Old"
"8jgAPlNrNhf7NHal2NhRU5cKP" 11 "5dop" "The_girl_will_pass_the_sheep_the_dress" "right" "left" "training" "7/8/2019" "10:40" "right" 1 991.297999999999 1 "Pre" "DO" "Pred" "Old"
"8jgAPlNrNhf7NHal2NhRU5cKP" 12 "4dop" "George_will_send_the_donkey_the_brush" "left" "right" "training" "7/8/2019" "10:40" "left" 1 1596.298 1 "Pre" "DO" "Pred" "Old"
"9oOzdNvMMW6vNEGycT3BoCh0X" 1 "8poup" "Chase_will_give_the_deer_to_the_kitten" "left" "right" "training" "7/18/2019" "12:47" "left" 1 2843.402 1 "Pre" "PO" "NonPred" "Old"
"9oOzdNvMMW6vNEGycT3BoCh0X" 2 "5poup" "The_girl_will_pass_the_bird_to_the_sheep" "left" "right" "training" "7/18/2019" "12:47" "left" 1 3380.402 1 "Pre" "PO" "NonPred" "Old"
"9oOzdNvMMW6vNEGycT3BoCh0X" 3 "2poup" "Tigger_will_give_the_butterfly_to_the_zebra" "left" "right" "training" "7/18/2019" "12:47" "left" 1 933.402 1 "Pre" "PO" "NonPred" "Old"
"9oOzdNvMMW6vNEGycT3BoCh0X" 4 "9poup" "Dora_the_explorer_will_bring_the_cow_to_the_hippo" "right" "left" "training" "7/18/2019" "12:47" "right" 1 2838.402 1 "Pre" "PO" "NonPred" "Old"
"9oOzdNvMMW6vNEGycT3BoCh0X" 5 "3poup" "Rebecca_Rabbit_will_bring_the_frog_to_the_chicken" "right" "left" "training" "7/18/2019" "12:47" "right" 1 1146.402 1 "Pre" "PO" "NonPred" "Old"
"9oOzdNvMMW6vNEGycT3BoCh0X" 6 "10poup" "Boots_will_send_the_pig_to_the_caterpillar" "left" "right" "training" "7/18/2019" "12:47" "left" 1 3556.402 1 "Pre" "PO" "NonPred" "Old"
"9oOzdNvMMW6vNEGycT3BoCh0X" 7 "12poup" "Winnie_the_pooh_will_show_the_owl_to_the_duck" "left" "right" "training" "7/18/2019" "12:47" "left" 1 1488.402 1 "Pre" "PO" "NonPred" "Old"
"9oOzdNvMMW6vNEGycT3BoCh0X" 8 "6poup" "Piglet_will_show_the_ant_to_the_fish" "right" "left" "training" "7/18/2019" "12:47" "right" 1 803.402 1 "Pre" "PO" "NonPred" "Old"
"9oOzdNvMMW6vNEGycT3BoCh0X" 9 "1poup" "The_boy_will_throw_the_dinosaur_to_the_bear" "right" "left" "training" "7/18/2019" "12:47" "left" 0 8055.402 1 "Pre" "PO" "NonPred" "Old"
"9oOzdNvMMW6vNEGycT3BoCh0X" 10 "7poup" "Bob_the_builder_will_throw_the_dog_to_the_penguin" "right" "left" "training" "7/18/2019" "12:47" "right" 1 1266.402 1 "Pre" "PO" "NonPred" "Old"
"9oOzdNvMMW6vNEGycT3BoCh0X" 11 "4poup" "George_will_send_the_fox_to_the_donkey" "left" "right" "training" "7/18/2019" "12:47" "right" 0 5716.402 1 "Pre" "PO" "NonPred" "Old"
"9oOzdNvMMW6vNEGycT3BoCh0X" 12 "11poup" "Marshall_will_pass_the_goat_to_the_bee" "right" "left" "training" "7/18/2019" "12:47" "right" 1 1070.402 1 "Pre" "PO" "NonPred" "Old"
"ADXIiawnQr5yIJGK7wAHFuoWo" 1 "8dop" "Chase_will_give_the_kitten_the_bisuit" "left" "right" "training" "4/17/2019" "12:56" "left" 1 3964.298 1 "Post" "DO" "Pred" "Old"
"ADXIiawnQr5yIJGK7wAHFuoWo" 2 "12dop" "Winnie_the_pooh_will_show_the_duck_the_frisbee" "left" "right" "training" "4/17/2019" "12:56" "left" 1 4062.298 1 "Post" "DO" "Pred" "Old"
"ADXIiawnQr5yIJGK7wAHFuoWo" 3 "3dop" "Rebecca_Rabbit_will_bring_the_chicken_the_pencil" "left" "right" "training" "4/17/2019" "12:56" "left" 1 1066.298 1 "Post" "DO" "Pred" "Old"
"ADXIiawnQr5yIJGK7wAHFuoWo" 4 "5dop" "The_girl_will_pass_the_sheep_the_dress" "right" "left" "training" "4/17/2019" "12:56" "right" 1 3559.298 1 "Post" "DO" "Pred" "Old"
"ADXIiawnQr5yIJGK7wAHFuoWo" 5 "10dop" "Boots_will_send_the_caterpillar_the_flower" "right" "left" "training" "4/17/2019" "12:56" "right" 1 1613.298 1 "Post" "DO" "Pred" "Old"
"ADXIiawnQr5yIJGK7wAHFuoWo" 6 "2dop" "Tigger_will_give_the_zebra_the_bottle" "right" "left" "training" "4/17/2019" "12:56" "right" 1 11363.298 1 "Post" "DO" "Pred" "Old"
"ADXIiawnQr5yIJGK7wAHFuoWo" 7 "4dop" "George_will_send_the_donkey_the_brush" "right" "left" "training" "4/17/2019" "12:56" "right" 1 17757.298 1 "Post" "DO" "Pred" "Old"
"ADXIiawnQr5yIJGK7wAHFuoWo" 8 "9dop" "Dora_the_explorer_will_bring_the_hippo_the_spoon" "left" "right" "training" "4/17/2019" "12:56" "left" 1 12482.298 1 "Post" "DO" "Pred" "Old"
"ADXIiawnQr5yIJGK7wAHFuoWo" 9 "7dop" "Bob_the_builder_will_throw_the_penguin_the_shoe" "left" "right" "training" "4/17/2019" "12:56" "left" 1 10949.298 1 "Post" "DO" "Pred" "Old"
"ADXIiawnQr5yIJGK7wAHFuoWo" 10 "11dop" "Marshall_will_pass_the_bee_the_gloves" "right" "left" "training" "4/17/2019" "12:56" "right" 1 6972.298 1 "Post" "DO" "Pred" "Old"
"ADXIiawnQr5yIJGK7wAHFuoWo" 11 "1dop" "The_boy_will_throw_the_bear_the_cheese" "left" "right" "training" "4/17/2019" "12:56" "left" 1 6381.298 1 "Post" "DO" "Pred" "Old"
"ADXIiawnQr5yIJGK7wAHFuoWo" 12 "6dop" "Piglet_will_show_the_fish_the_plate" "right" "left" "training" "4/17/2019" "12:56" "right" 1 1735.298 1 "Post" "DO" "Pred" "Old"
"AvrWsudy6bn6efmJizjfrJFJh" 1 "4pop" "George_will_send_the_brush_to_the_donkey" "left" "right" "training" "6/25/2019" "9:21" "left" 1 1958.414 1 "Post" "PO" "Pred" "Old"
"AvrWsudy6bn6efmJizjfrJFJh" 2 "10pop" "Boots_will_send_the_flower_to_the_caterpillar" "left" "right" "training" "6/25/2019" "9:21" "left" 1 2107.414 1 "Post" "PO" "Pred" "Old"
"AvrWsudy6bn6efmJizjfrJFJh" 3 "9pop" "Dora_the_explorer_will_bring_the_spoon_to_the_hippo" "right" "left" "training" "6/25/2019" "9:21" "right" 1 2525.414 1 "Post" "PO" "Pred" "Old"
"AvrWsudy6bn6efmJizjfrJFJh" 4 "7pop" "Bob_the_builder_will_throw_the_shoe_to_the_penguin" "right" "left" "training" "6/25/2019" "9:21" "right" 1 2320.414 1 "Post" "PO" "Pred" "Old"
"AvrWsudy6bn6efmJizjfrJFJh" 5 "5pop" "The_girl_will_pass_the_dress_to_the_sheep" "right" "left" "training" "6/25/2019" "9:21" "right" 1 1820.414 2 "Post" "PO" "Pred" "Old"
"AvrWsudy6bn6efmJizjfrJFJh" 6 "12pop" "Winnie_the_pooh_will_show_the_frisbee_to_the_duck" "left" "right" "training" "6/25/2019" "9:21" "left" 1 23577.414 1 "Post" "PO" "Pred" "Old"
"AvrWsudy6bn6efmJizjfrJFJh" 7 "3pop" "Rebecca_Rabbit_will_bring_the_pencil_to_the_chicken" "left" "right" "training" "6/25/2019" "9:21" "left" 1 3158.414 1 "Post" "PO" "Pred" "Old"
"AvrWsudy6bn6efmJizjfrJFJh" 8 "11pop" "Marshall_will_pass_the_gloves_to_the_bee" "right" "left" "training" "6/25/2019" "9:21" "left" 0 7185.414 1 "Post" "PO" "Pred" "Old"
"AvrWsudy6bn6efmJizjfrJFJh" 9 "6pop" "Piglet_will_show_the_plate_to_the_fish" "right" "left" "training" "6/25/2019" "9:21" "right" 1 7463.414 1 "Post" "PO" "Pred" "Old"
"AvrWsudy6bn6efmJizjfrJFJh" 10 "2pop" "Tigger_will_give_the_bottle_to_the_zebra" "right" "left" "training" "6/25/2019" "9:21" "left" 0 5852.414 1 "Post" "PO" "Pred" "Old"
"AvrWsudy6bn6efmJizjfrJFJh" 11 "1pop" "The_boy_will_throw_the_cheese_to_the_bear" "left" "right" "training" "6/25/2019" "9:21" "right" 0 11142.414 1 "Post" "PO" "Pred" "Old"
"AvrWsudy6bn6efmJizjfrJFJh" 12 "8pop" "Chase_will_give_the_biscuit_to_the_kitten" "left" "right" "training" "6/25/2019" "9:21" "left" 1 9098.414 1 "Post" "PO" "Pred" "Old"
"AX082cIs5N5jjZORvfNQmWpNp" 1 "5pop" "The_girl_will_pass_the_dress_to_the_sheep" "left" "right" "training" "4/24/2019" "11:53" "left" 1 6608.342 1 "Post" "PO" "Pred" "Old"
"AX082cIs5N5jjZORvfNQmWpNp" 2 "8pop" "Chase_will_give_the_biscuit_to_the_kitten" "right" "left" "training" "4/24/2019" "11:53" "right" 1 2192.342 1 "Post" "PO" "Pred" "Old"
"AX082cIs5N5jjZORvfNQmWpNp" 3 "9pop" "Dora_the_explorer_will_bring_the_spoon_to_the_hippo" "right" "left" "training" "4/24/2019" "11:53" "right" 1 4901.342 1 "Post" "PO" "Pred" "Old"
"AX082cIs5N5jjZORvfNQmWpNp" 4 "11pop" "Marshall_will_pass_the_gloves_to_the_bee" "right" "left" "training" "4/24/2019" "11:53" "right" 1 3092.342 1 "Post" "PO" "Pred" "Old"
"AX082cIs5N5jjZORvfNQmWpNp" 5 "1pop" "The_boy_will_throw_the_cheese_to_the_bear" "left" "right" "training" "4/24/2019" "11:53" "left" 1 4808.342 1 "Post" "PO" "Pred" "Old"
"AX082cIs5N5jjZORvfNQmWpNp" 6 "4pop" "George_will_send_the_brush_to_the_donkey" "left" "right" "training" "4/24/2019" "11:53" "left" 1 3552.342 1 "Post" "PO" "Pred" "Old"
"AX082cIs5N5jjZORvfNQmWpNp" 7 "10pop" "Boots_will_send_the_flower_to_the_caterpillar" "right" "left" "training" "4/24/2019" "11:53" "right" 1 6024.342 1 "Post" "PO" "Pred" "Old"
"AX082cIs5N5jjZORvfNQmWpNp" 8 "7pop" "Bob_the_builder_will_throw_the_shoe_to_the_penguin" "left" "right" "training" "4/24/2019" "11:53" "left" 1 3518.342 1 "Post" "PO" "Pred" "Old"
"AX082cIs5N5jjZORvfNQmWpNp" 9 "2pop" "Tigger_will_give_the_bottle_to_the_zebra" "left" "right" "training" "4/24/2019" "11:53" "left" 1 8783.342 1 "Post" "PO" "Pred" "Old"
"AX082cIs5N5jjZORvfNQmWpNp" 10 "3pop" "Rebecca_Rabbit_will_bring_the_pencil_to_the_chicken" "right" "left" "training" "4/24/2019" "11:53" "right" 1 700.342 1 "Post" "PO" "Pred" "Old"
"AX082cIs5N5jjZORvfNQmWpNp" 11 "12pop" "Winnie_the_pooh_will_show_the_frisbee_to_the_duck" "left" "right" "training" "4/24/2019" "11:53" "left" 1 4271.342 1 "Post" "PO" "Pred" "Old"
"AX082cIs5N5jjZORvfNQmWpNp" 12 "6pop" "Piglet_will_show_the_plate_to_the_fish" "right" "left" "training" "4/24/2019" "11:53" "right" 1 953.342 1 "Post" "PO" "Pred" "Old"
"CcaRecvQJxLPFcSqlx9GAxcDv" 1 "5dop" "The_girl_will_pass_the_sheep_the_dress" "left" "right" "training" "7/17/2019" "10:36" "left" 1 27537.946 1 "Post" "DO" "Pred" "Old"
"CcaRecvQJxLPFcSqlx9GAxcDv" 2 "2dop" "Tigger_will_give_the_zebra_the_bottle" "left" "right" "training" "7/17/2019" "10:36" "left" 1 10932.946 1 "Post" "DO" "Pred" "Old"
"CcaRecvQJxLPFcSqlx9GAxcDv" 3 "10dop" "Boots_will_send_the_caterpillar_the_flower" "right" "left" "training" "7/17/2019" "10:36" "right" 1 9129.946 1 "Post" "DO" "Pred" "Old"
"CcaRecvQJxLPFcSqlx9GAxcDv" 4 "8dop" "Chase_will_give_the_kitten_the_bisuit" "right" "left" "training" "7/17/2019" "10:36" "right" 1 7931.946 1 "Post" "DO" "Pred" "Old"
"CcaRecvQJxLPFcSqlx9GAxcDv" 5 "6dop" "Piglet_will_show_the_fish_the_plate" "left" "right" "training" "7/17/2019" "10:36" "left" 1 2742.946 1 "Post" "DO" "Pred" "Old"
"CcaRecvQJxLPFcSqlx9GAxcDv" 6 "3dop" "Rebecca_Rabbit_will_bring_the_chicken_the_pencil" "left" "right" "training" "7/17/2019" "10:36" "left" 1 2153.946 1 "Post" "DO" "Pred" "Old"
"CcaRecvQJxLPFcSqlx9GAxcDv" 7 "11dop" "Marshall_will_pass_the_bee_the_gloves" "right" "left" "training" "7/17/2019" "10:36" "right" 1 1084.946 1 "Post" "DO" "Pred" "Old"
"CcaRecvQJxLPFcSqlx9GAxcDv" 8 "12dop" "Winnie_the_pooh_will_show_the_duck_the_frisbee" "left" "right" "training" "7/17/2019" "10:36" "left" 1 18335.946 1 "Post" "DO" "Pred" "Old"
"CcaRecvQJxLPFcSqlx9GAxcDv" 9 "4dop" "George_will_send_the_donkey_the_brush" "left" "right" "training" "7/17/2019" "10:36" "left" 1 2380.946 1 "Post" "DO" "Pred" "Old"
"CcaRecvQJxLPFcSqlx9GAxcDv" 10 "7dop" "Bob_the_builder_will_throw_the_penguin_the_shoe" "right" "left" "training" "7/17/2019" "10:36" "right" 1 5561.946 1 "Post" "DO" "Pred" "Old"
"CcaRecvQJxLPFcSqlx9GAxcDv" 11 "1dop" "The_boy_will_throw_the_bear_the_cheese" "right" "left" "training" "7/17/2019" "10:36" "right" 1 4845.946 1 "Post" "DO" "Pred" "Old"
"CcaRecvQJxLPFcSqlx9GAxcDv" 12 "9dop" "Dora_the_explorer_will_bring_the_hippo_the_spoon" "right" "left" "training" "7/17/2019" "10:36" "right" 1 5030.946 1 "Post" "DO" "Pred" "Old"
"Co8n5Rdiwg7ItIlIvt1Y8UAh8" 1 "11dop" "Marshall_will_pass_the_bee_the_gloves" "right" "left" "training" "7/8/2019" "10:58" "right" 1 9672.037 1 "Post" "DO" "Pred" "Old"
"Co8n5Rdiwg7ItIlIvt1Y8UAh8" 2 "1dop" "The_boy_will_throw_the_bear_the_cheese" "left" "right" "training" "7/8/2019" "10:58" "left" 1 8737.037 1 "Post" "DO" "Pred" "Old"
"Co8n5Rdiwg7ItIlIvt1Y8UAh8" 3 "3dop" "Rebecca_Rabbit_will_bring_the_chicken_the_pencil" "left" "right" "training" "7/8/2019" "10:58" "left" 1 5173.037 1 "Post" "DO" "Pred" "Old"
"Co8n5Rdiwg7ItIlIvt1Y8UAh8" 4 "10dop" "Boots_will_send_the_caterpillar_the_flower" "left" "right" "training" "7/8/2019" "10:58" "left" 1 4285.037 1 "Post" "DO" "Pred" "Old"
"Co8n5Rdiwg7ItIlIvt1Y8UAh8" 5 "8dop" "Chase_will_give_the_kitten_the_bisuit" "left" "right" "training" "7/8/2019" "10:58" "left" 1 6540.037 1 "Post" "DO" "Pred" "Old"
"Co8n5Rdiwg7ItIlIvt1Y8UAh8" 6 "4dop" "George_will_send_the_donkey_the_brush" "right" "left" "training" "7/8/2019" "10:58" "right" 1 6510.037 1 "Post" "DO" "Pred" "Old"
"Co8n5Rdiwg7ItIlIvt1Y8UAh8" 7 "7dop" "Bob_the_builder_will_throw_the_penguin_the_shoe" "right" "left" "training" "7/8/2019" "10:58" "right" 1 7244.037 1 "Post" "DO" "Pred" "Old"
"Co8n5Rdiwg7ItIlIvt1Y8UAh8" 8 "5dop" "The_girl_will_pass_the_sheep_the_dress" "right" "left" "training" "7/8/2019" "10:58" "right" 1 4507.037 1 "Post" "DO" "Pred" "Old"
"Co8n5Rdiwg7ItIlIvt1Y8UAh8" 9 "12dop" "Winnie_the_pooh_will_show_the_duck_the_frisbee" "right" "left" "training" "7/8/2019" "10:58" "right" 1 3894.037 1 "Post" "DO" "Pred" "Old"
"Co8n5Rdiwg7ItIlIvt1Y8UAh8" 10 "9dop" "Dora_the_explorer_will_bring_the_hippo_the_spoon" "left" "right" "training" "7/8/2019" "10:58" "left" 1 5488.037 1 "Post" "DO" "Pred" "Old"
"Co8n5Rdiwg7ItIlIvt1Y8UAh8" 11 "2dop" "Tigger_will_give_the_zebra_the_bottle" "right" "left" "training" "7/8/2019" "10:58" "right" 1 3657.037 1 "Post" "DO" "Pred" "Old"
"Co8n5Rdiwg7ItIlIvt1Y8UAh8" 12 "6dop" "Piglet_will_show_the_fish_the_plate" "left" "right" "training" "7/8/2019" "10:58" "left" 1 4012.037 1 "Post" "DO" "Pred" "Old"
"DuCpKX1bRkSFGjBv9kD8PDads" 1 "4poup" "George_will_send_the_fox_to_the_donkey" "right" "left" "training" "6/17/2019" "10:08" "right" 1 7708.791 1 "Post" "PO" "NonPred" "Old"
"DuCpKX1bRkSFGjBv9kD8PDads" 2 "8poup" "Chase_will_give_the_deer_to_the_kitten" "left" "right" "training" "6/17/2019" "10:08" "left" 1 3257.791 1 "Post" "PO" "NonPred" "Old"
"DuCpKX1bRkSFGjBv9kD8PDads" 3 "10poup" "Boots_will_send_the_pig_to_the_caterpillar" "right" "left" "training" "6/17/2019" "10:08" "right" 1 3320.791 1 "Post" "PO" "NonPred" "Old"
"DuCpKX1bRkSFGjBv9kD8PDads" 4 "12poup" "Winnie_the_pooh_will_show_the_owl_to_the_duck" "right" "left" "training" "6/17/2019" "10:08" "right" 1 5933.791 1 "Post" "PO" "NonPred" "Old"
"DuCpKX1bRkSFGjBv9kD8PDads" 5 "7poup" "Bob_the_builder_will_throw_the_dog_to_the_penguin" "left" "right" "training" "6/17/2019" "10:08" "left" 1 3662.791 1 "Post" "PO" "NonPred" "Old"
"DuCpKX1bRkSFGjBv9kD8PDads" 6 "1poup" "The_boy_will_throw_the_dinosaur_to_the_bear" "right" "left" "training" "6/17/2019" "10:08" "right" 1 2467.791 1 "Post" "PO" "NonPred" "Old"
"DuCpKX1bRkSFGjBv9kD8PDads" 7 "5poup" "The_girl_will_pass_the_bird_to_the_sheep" "right" "left" "training" "6/17/2019" "10:08" "right" 1 3152.791 1 "Post" "PO" "NonPred" "Old"
"DuCpKX1bRkSFGjBv9kD8PDads" 8 "3poup" "Rebecca_Rabbit_will_bring_the_frog_to_the_chicken" "left" "right" "training" "6/17/2019" "10:08" "left" 1 1413.791 1 "Post" "PO" "NonPred" "Old"
"DuCpKX1bRkSFGjBv9kD8PDads" 9 "9poup" "Dora_the_explorer_will_bring_the_cow_to_the_hippo" "left" "right" "training" "6/17/2019" "10:08" "left" 1 2612.791 1 "Post" "PO" "NonPred" "Old"
"DuCpKX1bRkSFGjBv9kD8PDads" 10 "2poup" "Tigger_will_give_the_butterfly_to_the_zebra" "left" "right" "training" "6/17/2019" "10:08" "left" 1 1700.791 1 "Post" "PO" "NonPred" "Old"
"DuCpKX1bRkSFGjBv9kD8PDads" 11 "6poup" "Piglet_will_show_the_ant_to_the_fish" "left" "right" "training" "6/17/2019" "10:08" "left" 1 1961.791 1 "Post" "PO" "NonPred" "Old"
"DuCpKX1bRkSFGjBv9kD8PDads" 12 "11poup" "Marshall_will_pass_the_goat_to_the_bee" "right" "left" "training" "6/17/2019" "10:08" "right" 1 1337.791 1 "Post" "PO" "NonPred" "Old"
"E4eEjp8jdT9dLuiNCdUwCyceJ" 1 "11pop" "Marshall_will_pass_the_gloves_to_the_bee" "right" "left" "training" "7/17/2019" "13:48" "right" 1 8196.535 1 "Pre" "PO" "Pred" "Old"
"E4eEjp8jdT9dLuiNCdUwCyceJ" 2 "2pop" "Tigger_will_give_the_bottle_to_the_zebra" "right" "left" "training" "7/17/2019" "13:48" "right" 1 4495.535 1 "Pre" "PO" "Pred" "Old"
"E4eEjp8jdT9dLuiNCdUwCyceJ" 3 "1pop" "The_boy_will_throw_the_cheese_to_the_bear" "left" "right" "training" "7/17/2019" "13:48" "left" 1 5067.535 1 "Pre" "PO" "Pred" "Old"
"E4eEjp8jdT9dLuiNCdUwCyceJ" 4 "12pop" "Winnie_the_pooh_will_show_the_frisbee_to_the_duck" "right" "left" "training" "7/17/2019" "13:48" "right" 1 4600.535 1 "Pre" "PO" "Pred" "Old"
"E4eEjp8jdT9dLuiNCdUwCyceJ" 5 "3pop" "Rebecca_Rabbit_will_bring_the_pencil_to_the_chicken" "right" "left" "training" "7/17/2019" "13:48" "right" 1 3494.535 1 "Pre" "PO" "Pred" "Old"
"E4eEjp8jdT9dLuiNCdUwCyceJ" 6 "10pop" "Boots_will_send_the_flower_to_the_caterpillar" "left" "right" "training" "7/17/2019" "13:48" "left" 1 2606.535 1 "Pre" "PO" "Pred" "Old"
"E4eEjp8jdT9dLuiNCdUwCyceJ" 7 "7pop" "Bob_the_builder_will_throw_the_shoe_to_the_penguin" "left" "right" "training" "7/17/2019" "13:48" "left" 1 5666.535 1 "Pre" "PO" "Pred" "Old"
"E4eEjp8jdT9dLuiNCdUwCyceJ" 8 "6pop" "Piglet_will_show_the_plate_to_the_fish" "left" "right" "training" "7/17/2019" "13:48" "left" 1 2578.535 1 "Pre" "PO" "Pred" "Old"
"E4eEjp8jdT9dLuiNCdUwCyceJ" 9 "4pop" "George_will_send_the_brush_to_the_donkey" "right" "left" "training" "7/17/2019" "13:48" "right" 1 3878.535 1 "Pre" "PO" "Pred" "Old"
"E4eEjp8jdT9dLuiNCdUwCyceJ" 10 "8pop" "Chase_will_give_the_biscuit_to_the_kitten" "left" "right" "training" "7/17/2019" "13:48" "left" 1 6954.535 1 "Pre" "PO" "Pred" "Old"
"E4eEjp8jdT9dLuiNCdUwCyceJ" 11 "9pop" "Dora_the_explorer_will_bring_the_spoon_to_the_hippo" "right" "left" "training" "7/17/2019" "13:48" "right" 1 6762.535 1 "Pre" "PO" "Pred" "Old"
"E4eEjp8jdT9dLuiNCdUwCyceJ" 12 "5pop" "The_girl_will_pass_the_dress_to_the_sheep" "left" "right" "training" "7/17/2019" "13:48" "left" 1 6278.535 1 "Pre" "PO" "Pred" "Old"
"eZ7ho2k5zltqLmcrTJh8e9MHq" 1 "6pop" "Piglet_will_show_the_plate_to_the_fish" "right" "left" "training" "7/1/2019" "11:41" "right" 1 15205.1857 1 "Post" "PO" "Pred" "Old"
"eZ7ho2k5zltqLmcrTJh8e9MHq" 2 "12pop" "Winnie_the_pooh_will_show_the_frisbee_to_the_duck" "left" "right" "training" "7/1/2019" "11:41" "left" 1 10393.1857 1 "Post" "PO" "Pred" "Old"
"eZ7ho2k5zltqLmcrTJh8e9MHq" 3 "10pop" "Boots_will_send_the_flower_to_the_caterpillar" "left" "right" "training" "7/1/2019" "11:41" "left" 1 4657.1857 1 "Post" "PO" "Pred" "Old"
"eZ7ho2k5zltqLmcrTJh8e9MHq" 4 "7pop" "Bob_the_builder_will_throw_the_shoe_to_the_penguin" "right" "left" "training" "7/1/2019" "11:41" "right" 1 5062.1857 1 "Post" "PO" "Pred" "Old"
"eZ7ho2k5zltqLmcrTJh8e9MHq" 5 "9pop" "Dora_the_explorer_will_bring_the_spoon_to_the_hippo" "right" "left" "training" "7/1/2019" "11:41" "right" 1 6057.1857 1 "Post" "PO" "Pred" "Old"
"eZ7ho2k5zltqLmcrTJh8e9MHq" 6 "11pop" "Marshall_will_pass_the_gloves_to_the_bee" "left" "right" "training" "7/1/2019" "11:41" "left" 1 3276.1857 1 "Post" "PO" "Pred" "Old"
"eZ7ho2k5zltqLmcrTJh8e9MHq" 7 "4pop" "George_will_send_the_brush_to_the_donkey" "left" "right" "training" "7/1/2019" "11:41" "left" 1 5118.1857 1 "Post" "PO" "Pred" "Old"
"eZ7ho2k5zltqLmcrTJh8e9MHq" 8 "2pop" "Tigger_will_give_the_bottle_to_the_zebra" "left" "right" "training" "7/1/2019" "11:41" "left" 1 2644.1857 1 "Post" "PO" "Pred" "Old"
"eZ7ho2k5zltqLmcrTJh8e9MHq" 9 "1pop" "The_boy_will_throw_the_cheese_to_the_bear" "right" "left" "training" "7/1/2019" "11:41" "right" 1 5054.1857 1 "Post" "PO" "Pred" "Old"
"eZ7ho2k5zltqLmcrTJh8e9MHq" 10 "8pop" "Chase_will_give_the_biscuit_to_the_kitten" "left" "right" "training" "7/1/2019" "11:41" "left" 1 2539.1857 1 "Post" "PO" "Pred" "Old"
"eZ7ho2k5zltqLmcrTJh8e9MHq" 11 "5pop" "The_girl_will_pass_the_dress_to_the_sheep" "right" "left" "training" "7/1/2019" "11:41" "right" 1 4120.1857 1 "Post" "PO" "Pred" "Old"
"eZ7ho2k5zltqLmcrTJh8e9MHq" 12 "3pop" "Rebecca_Rabbit_will_bring_the_pencil_to_the_chicken" "right" "left" "training" "7/1/2019" "11:41" "right" 1 2159.1857 1 "Post" "PO" "Pred" "Old"
"FdODjTefLNBHciMwmAY0fzy0s" 1 "8dop" "Chase_will_give_the_kitten_the_bisuit" "right" "left" "training" "7/18/2019" "13:12" "right" 1 16415.298 1 "Post" "DO" "Pred" "Old"
"FdODjTefLNBHciMwmAY0fzy0s" 2 "5dop" "The_girl_will_pass_the_sheep_the_dress" "left" "right" "training" "7/18/2019" "13:12" "left" 1 6856.298 1 "Post" "DO" "Pred" "Old"
"FdODjTefLNBHciMwmAY0fzy0s" 3 "1dop" "The_boy_will_throw_the_bear_the_cheese" "left" "right" "training" "7/18/2019" "13:12" "left" 1 11973.298 1 "Post" "DO" "Pred" "Old"
"FdODjTefLNBHciMwmAY0fzy0s" 4 "7dop" "Bob_the_builder_will_throw_the_penguin_the_shoe" "left" "right" "training" "7/18/2019" "13:12" "left" 1 8593.298 1 "Post" "DO" "Pred" "Old"
"FdODjTefLNBHciMwmAY0fzy0s" 5 "6dop" "Piglet_will_show_the_fish_the_plate" "right" "left" "training" "7/18/2019" "13:12" "right" 1 2849.298 1 "Post" "DO" "Pred" "Old"
"FdODjTefLNBHciMwmAY0fzy0s" 6 "9dop" "Dora_the_explorer_will_bring_the_hippo_the_spoon" "left" "right" "training" "7/18/2019" "13:12" "left" 1 5720.298 1 "Post" "DO" "Pred" "Old"
"FdODjTefLNBHciMwmAY0fzy0s" 7 "4dop" "George_will_send_the_donkey_the_brush" "right" "left" "training" "7/18/2019" "13:12" "right" 1 4424.298 1 "Post" "DO" "Pred" "Old"
"FdODjTefLNBHciMwmAY0fzy0s" 8 "2dop" "Tigger_will_give_the_zebra_the_bottle" "right" "left" "training" "7/18/2019" "13:12" "right" 1 1404.298 1 "Post" "DO" "Pred" "Old"
"FdODjTefLNBHciMwmAY0fzy0s" 9 "12dop" "Winnie_the_pooh_will_show_the_duck_the_frisbee" "right" "left" "training" "7/18/2019" "13:12" "right" 1 2555.298 1 "Post" "DO" "Pred" "Old"
"FdODjTefLNBHciMwmAY0fzy0s" 10 "11dop" "Marshall_will_pass_the_bee_the_gloves" "left" "right" "training" "7/18/2019" "13:12" "left" 1 2407.298 1 "Post" "DO" "Pred" "Old"
"FdODjTefLNBHciMwmAY0fzy0s" 11 "10dop" "Boots_will_send_the_caterpillar_the_flower" "left" "right" "training" "7/18/2019" "13:12" "left" 1 1442.298 1 "Post" "DO" "Pred" "Old"
"FdODjTefLNBHciMwmAY0fzy0s" 12 "3dop" "Rebecca_Rabbit_will_bring_the_chicken_the_pencil" "right" "left" "training" "7/18/2019" "13:12" "right" 1 2704.298 1 "Post" "DO" "Pred" "Old"
"FwqPAwsJHhtqk1alRgW3QGzE2" 1 "2poup" "Tigger_will_give_the_butterfly_to_the_zebra" "left" "right" "training" "7/24/2019" "11:05" "left" 1 6603.44 1 "Post" "PO" "NonPred" "Old"
"FwqPAwsJHhtqk1alRgW3QGzE2" 2 "11poup" "Marshall_will_pass_the_goat_to_the_bee" "right" "left" "training" "7/24/2019" "11:05" "right" 1 4444.44 1 "Post" "PO" "NonPred" "Old"
"FwqPAwsJHhtqk1alRgW3QGzE2" 3 "9poup" "Dora_the_explorer_will_bring_the_cow_to_the_hippo" "left" "right" "training" "7/24/2019" "11:05" "left" 1 3919.44 1 "Post" "PO" "NonPred" "Old"
"FwqPAwsJHhtqk1alRgW3QGzE2" 4 "1poup" "The_boy_will_throw_the_dinosaur_to_the_bear" "right" "left" "training" "7/24/2019" "11:05" "right" 1 3852.44 1 "Post" "PO" "NonPred" "Old"
"FwqPAwsJHhtqk1alRgW3QGzE2" 5 "3poup" "Rebecca_Rabbit_will_bring_the_frog_to_the_chicken" "right" "left" "training" "7/24/2019" "11:05" "right" 1 3275.44 1 "Post" "PO" "NonPred" "Old"
"FwqPAwsJHhtqk1alRgW3QGzE2" 6 "8poup" "Chase_will_give_the_deer_to_the_kitten" "left" "right" "training" "7/24/2019" "11:05" "left" 1 5005.44 1 "Post" "PO" "NonPred" "Old"
"FwqPAwsJHhtqk1alRgW3QGzE2" 7 "4poup" "George_will_send_the_fox_to_the_donkey" "left" "right" "training" "7/24/2019" "11:05" "left" 1 2070.44 1 "Post" "PO" "NonPred" "Old"
"FwqPAwsJHhtqk1alRgW3QGzE2" 8 "5poup" "The_girl_will_pass_the_bird_to_the_sheep" "right" "left" "training" "7/24/2019" "11:05" "right" 1 2763.44 1 "Post" "PO" "NonPred" "Old"
"FwqPAwsJHhtqk1alRgW3QGzE2" 9 "7poup" "Bob_the_builder_will_throw_the_dog_to_the_penguin" "right" "left" "training" "7/24/2019" "11:05" "right" 1 3781.44 1 "Post" "PO" "NonPred" "Old"
"FwqPAwsJHhtqk1alRgW3QGzE2" 10 "10poup" "Boots_will_send_the_pig_to_the_caterpillar" "left" "right" "training" "7/24/2019" "11:05" "left" 1 2799.44 1 "Post" "PO" "NonPred" "Old"
"FwqPAwsJHhtqk1alRgW3QGzE2" 11 "12poup" "Winnie_the_pooh_will_show_the_owl_to_the_duck" "right" "left" "training" "7/24/2019" "11:05" "right" 1 3500.44 1 "Post" "PO" "NonPred" "Old"
"FwqPAwsJHhtqk1alRgW3QGzE2" 12 "6poup" "Piglet_will_show_the_ant_to_the_fish" "left" "right" "training" "7/24/2019" "11:05" "left" 1 4697.44 1 "Post" "PO" "NonPred" "Old"
"GQLgHmxXdeTrRxApGRccaywgx" 1 "8poup" "Chase_will_give_the_deer_to_the_kitten" "left" "right" "training" "6/25/2019" "9:21" "left" 1 3750.402 1 "Pre" "PO" "NonPred" "Old"
"GQLgHmxXdeTrRxApGRccaywgx" 2 "1poup" "The_boy_will_throw_the_dinosaur_to_the_bear" "left" "right" "training" "6/25/2019" "9:21" "right" 0 3322.402 1 "Pre" "PO" "NonPred" "Old"
"GQLgHmxXdeTrRxApGRccaywgx" 3 "7poup" "Bob_the_builder_will_throw_the_dog_to_the_penguin" "left" "right" "training" "6/25/2019" "9:21" "left" 1 3157.402 1 "Pre" "PO" "NonPred" "Old"
"GQLgHmxXdeTrRxApGRccaywgx" 4 "3poup" "Rebecca_Rabbit_will_bring_the_frog_to_the_chicken" "right" "left" "training" "6/25/2019" "9:21" "right" 1 2245.402 1 "Pre" "PO" "NonPred" "Old"
"GQLgHmxXdeTrRxApGRccaywgx" 5 "5poup" "The_girl_will_pass_the_bird_to_the_sheep" "right" "left" "training" "6/25/2019" "9:21" "right" 1 3298.402 4 "Pre" "PO" "NonPred" "Old"
"GQLgHmxXdeTrRxApGRccaywgx" 6 "9poup" "Dora_the_explorer_will_bring_the_cow_to_the_hippo" "left" "right" "training" "6/25/2019" "9:21" "left" 1 2319.402 1 "Pre" "PO" "NonPred" "Old"
"GQLgHmxXdeTrRxApGRccaywgx" 7 "6poup" "Piglet_will_show_the_ant_to_the_fish" "right" "left" "training" "6/25/2019" "9:21" "left" 0 1997.402 5 "Pre" "PO" "NonPred" "Old"
"GQLgHmxXdeTrRxApGRccaywgx" 8 "4poup" "George_will_send_the_fox_to_the_donkey" "right" "left" "training" "6/25/2019" "9:21" "right" 1 4617.402 1 "Pre" "PO" "NonPred" "Old"
"GQLgHmxXdeTrRxApGRccaywgx" 9 "12poup" "Winnie_the_pooh_will_show_the_owl_to_the_duck" "left" "right" "training" "6/25/2019" "9:21" "left" 1 5700.402 1 "Pre" "PO" "NonPred" "Old"
"GQLgHmxXdeTrRxApGRccaywgx" 10 "2poup" "Tigger_will_give_the_butterfly_to_the_zebra" "right" "left" "training" "6/25/2019" "9:21" "right" 1 2587.402 1 "Pre" "PO" "NonPred" "Old"
"GQLgHmxXdeTrRxApGRccaywgx" 11 "10poup" "Boots_will_send_the_pig_to_the_caterpillar" "right" "left" "training" "6/25/2019" "9:21" "right" 1 1395.402 1 "Pre" "PO" "NonPred" "Old"
"GQLgHmxXdeTrRxApGRccaywgx" 12 "11poup" "Marshall_will_pass_the_goat_to_the_bee" "left" "right" "training" "6/25/2019" "9:21" "left" 1 1579.402 1 "Pre" "PO" "NonPred" "Old"
"H9yGpPYpoulJelMr19gxSWT9I" 1 "2pop" "Tigger_will_give_the_bottle_to_the_zebra" "right" "left" "training" "6/25/2019" "11:54" "right" 1 8482.966 1 "Post" "PO" "Pred" "Old"
"H9yGpPYpoulJelMr19gxSWT9I" 2 "12pop" "Winnie_the_pooh_will_show_the_frisbee_to_the_duck" "left" "right" "training" "6/25/2019" "11:54" "left" 1 5314.966 1 "Post" "PO" "Pred" "Old"
"H9yGpPYpoulJelMr19gxSWT9I" 3 "7pop" "Bob_the_builder_will_throw_the_shoe_to_the_penguin" "right" "left" "training" "6/25/2019" "11:54" "right" 1 5791.966 1 "Post" "PO" "Pred" "Old"
"H9yGpPYpoulJelMr19gxSWT9I" 4 "3pop" "Rebecca_Rabbit_will_bring_the_pencil_to_the_chicken" "left" "right" "training" "6/25/2019" "11:54" "left" 1 3380.966 1 "Post" "PO" "Pred" "Old"
"H9yGpPYpoulJelMr19gxSWT9I" 5 "4pop" "George_will_send_the_brush_to_the_donkey" "left" "right" "training" "6/25/2019" "11:54" "left" 1 13386.966 1 "Post" "PO" "Pred" "Old"
"H9yGpPYpoulJelMr19gxSWT9I" 6 "8pop" "Chase_will_give_the_biscuit_to_the_kitten" "right" "left" "training" "6/25/2019" "11:54" "right" 1 2653.966 1 "Post" "PO" "Pred" "Old"
"H9yGpPYpoulJelMr19gxSWT9I" 7 "6pop" "Piglet_will_show_the_plate_to_the_fish" "left" "right" "training" "6/25/2019" "11:54" "left" 1 3288.966 1 "Post" "PO" "Pred" "Old"
"H9yGpPYpoulJelMr19gxSWT9I" 8 "9pop" "Dora_the_explorer_will_bring_the_spoon_to_the_hippo" "left" "right" "training" "6/25/2019" "11:54" "left" 1 3537.966 1 "Post" "PO" "Pred" "Old"
"H9yGpPYpoulJelMr19gxSWT9I" 9 "10pop" "Boots_will_send_the_flower_to_the_caterpillar" "left" "right" "training" "6/25/2019" "11:54" "left" 1 5986.966 1 "Post" "PO" "Pred" "Old"
"H9yGpPYpoulJelMr19gxSWT9I" 10 "5pop" "The_girl_will_pass_the_dress_to_the_sheep" "right" "left" "training" "6/25/2019" "11:54" "right" 1 3764.966 1 "Post" "PO" "Pred" "Old"
"H9yGpPYpoulJelMr19gxSWT9I" 11 "11pop" "Marshall_will_pass_the_gloves_to_the_bee" "right" "left" "training" "6/25/2019" "11:54" "right" 1 2122.966 1 "Post" "PO" "Pred" "Old"
"H9yGpPYpoulJelMr19gxSWT9I" 12 "1pop" "The_boy_will_throw_the_cheese_to_the_bear" "right" "left" "training" "6/25/2019" "11:54" "right" 1 4085.966 1 "Post" "PO" "Pred" "Old"
"i9PqXdc6jyqSFOa122A9aGWmQ" 1 "1dop" "The_boy_will_throw_the_bear_the_cheese" "left" "right" "training" "10/28/2019" "10:49" "left" 1 12524.661 1 "Post" "DO" "Pred" "Old"
"i9PqXdc6jyqSFOa122A9aGWmQ" 2 "7dop" "Bob_the_builder_will_throw_the_penguin_the_shoe" "left" "right" "training" "10/28/2019" "10:49" "left" 1 7779.661 1 "Post" "DO" "Pred" "Old"
"i9PqXdc6jyqSFOa122A9aGWmQ" 3 "2dop" "Tigger_will_give_the_zebra_the_bottle" "right" "left" "training" "10/28/2019" "10:49" "right" 1 5697.661 1 "Post" "DO" "Pred" "Old"
"i9PqXdc6jyqSFOa122A9aGWmQ" 4 "5dop" "The_girl_will_pass_the_sheep_the_dress" "left" "right" "training" "10/28/2019" "10:49" "left" 1 10525.661 1 "Post" "DO" "Pred" "Old"
"i9PqXdc6jyqSFOa122A9aGWmQ" 5 "6dop" "Piglet_will_show_the_fish_the_plate" "right" "left" "training" "10/28/2019" "10:49" "right" 1 7421.661 1 "Post" "DO" "Pred" "Old"
"i9PqXdc6jyqSFOa122A9aGWmQ" 6 "12dop" "Winnie_the_pooh_will_show_the_duck_the_frisbee" "left" "right" "training" "10/28/2019" "10:49" "left" 1 4983.661 1 "Post" "DO" "Pred" "Old"
"i9PqXdc6jyqSFOa122A9aGWmQ" 7 "3dop" "Rebecca_Rabbit_will_bring_the_chicken_the_pencil" "left" "right" "training" "10/28/2019" "10:49" "left" 1 4127.661 1 "Post" "DO" "Pred" "Old"
"i9PqXdc6jyqSFOa122A9aGWmQ" 8 "8dop" "Chase_will_give_the_kitten_the_bisuit" "left" "right" "training" "10/28/2019" "10:49" "left" 1 7607.661 1 "Post" "DO" "Pred" "Old"
"i9PqXdc6jyqSFOa122A9aGWmQ" 9 "4dop" "George_will_send_the_donkey_the_brush" "right" "left" "training" "10/28/2019" "10:49" "right" 1 5194.661 1 "Post" "DO" "Pred" "Old"
"i9PqXdc6jyqSFOa122A9aGWmQ" 10 "11dop" "Marshall_will_pass_the_bee_the_gloves" "right" "left" "training" "10/28/2019" "10:49" "right" 1 5110.661 1 "Post" "DO" "Pred" "Old"
"i9PqXdc6jyqSFOa122A9aGWmQ" 11 "10dop" "Boots_will_send_the_caterpillar_the_flower" "right" "left" "training" "10/28/2019" "10:49" "right" 1 3240.661 1 "Post" "DO" "Pred" "Old"
"i9PqXdc6jyqSFOa122A9aGWmQ" 12 "9dop" "Dora_the_explorer_will_bring_the_hippo_the_spoon" "right" "left" "training" "10/28/2019" "10:49" "right" 1 13743.661 1 "Post" "DO" "Pred" "Old"
"IJRTd7WULy3UcrqSAj58fK5Hk" 1 "3poup" "Rebecca_Rabbit_will_bring_the_frog_to_the_chicken" "right" "left" "training" "7/18/2019" "14:23" "left" 0 5247.435 1 "Post" "PO" "NonPred" "Old"
"IJRTd7WULy3UcrqSAj58fK5Hk" 2 "11poup" "Marshall_will_pass_the_goat_to_the_bee" "right" "left" "training" "7/18/2019" "14:23" "right" 1 7746.435 1 "Post" "PO" "NonPred" "Old"
"IJRTd7WULy3UcrqSAj58fK5Hk" 3 "1poup" "The_boy_will_throw_the_dinosaur_to_the_bear" "left" "right" "training" "7/18/2019" "14:23" "left" 1 5462.435 1 "Post" "PO" "NonPred" "Old"
"IJRTd7WULy3UcrqSAj58fK5Hk" 4 "10poup" "Boots_will_send_the_pig_to_the_caterpillar" "right" "left" "training" "7/18/2019" "14:23" "right" 1 12176.435 1 "Post" "PO" "NonPred" "Old"
"IJRTd7WULy3UcrqSAj58fK5Hk" 5 "2poup" "Tigger_will_give_the_butterfly_to_the_zebra" "left" "right" "training" "7/18/2019" "14:23" "left" 1 29144.435 1 "Post" "PO" "NonPred" "Old"
"IJRTd7WULy3UcrqSAj58fK5Hk" 6 "8poup" "Chase_will_give_the_deer_to_the_kitten" "right" "left" "training" "7/18/2019" "14:23" "left" 0 3331.435 1 "Post" "PO" "NonPred" "Old"
"IJRTd7WULy3UcrqSAj58fK5Hk" 7 "12poup" "Winnie_the_pooh_will_show_the_owl_to_the_duck" "right" "left" "training" "7/18/2019" "14:23" "left" 0 4250.435 1 "Post" "PO" "NonPred" "Old"
"IJRTd7WULy3UcrqSAj58fK5Hk" 8 "9poup" "Dora_the_explorer_will_bring_the_cow_to_the_hippo" "left" "right" "training" "7/18/2019" "14:23" "left" 1 3268.435 1 "Post" "PO" "NonPred" "Old"
"IJRTd7WULy3UcrqSAj58fK5Hk" 9 "7poup" "Bob_the_builder_will_throw_the_dog_to_the_penguin" "left" "right" "training" "7/18/2019" "14:23" "left" 1 2818.435 1 "Post" "PO" "NonPred" "Old"
"IJRTd7WULy3UcrqSAj58fK5Hk" 10 "5poup" "The_girl_will_pass_the_bird_to_the_sheep" "left" "right" "training" "7/18/2019" "14:23" "left" 1 5536.435 1 "Post" "PO" "NonPred" "Old"
"IJRTd7WULy3UcrqSAj58fK5Hk" 11 "4poup" "George_will_send_the_fox_to_the_donkey" "right" "left" "training" "7/18/2019" "14:23" "left" 0 7274.435 1 "Post" "PO" "NonPred" "Old"
"IJRTd7WULy3UcrqSAj58fK5Hk" 12 "6poup" "Piglet_will_show_the_ant_to_the_fish" "left" "right" "training" "7/18/2019" "14:23" "left" 1 9856.435 1 "Post" "PO" "NonPred" "Old"
"iLumJFeKJT74QSXxlJLJx63CE" 1 "7pop" "Bob_the_builder_will_throw_the_shoe_to_the_penguin" "left" "right" "training" "7/18/2019" "11:09" "left" 1 19117.69 1 "Post" "PO" "Pred" "Old"
"iLumJFeKJT74QSXxlJLJx63CE" 2 "11pop" "Marshall_will_pass_the_gloves_to_the_bee" "left" "right" "training" "7/18/2019" "11:09" "left" 1 2464.69 1 "Post" "PO" "Pred" "Old"
"iLumJFeKJT74QSXxlJLJx63CE" 3 "1pop" "The_boy_will_throw_the_cheese_to_the_bear" "left" "right" "training" "7/18/2019" "11:09" "left" 1 5582.69 1 "Post" "PO" "Pred" "Old"
"iLumJFeKJT74QSXxlJLJx63CE" 4 "9pop" "Dora_the_explorer_will_bring_the_spoon_to_the_hippo" "right" "left" "training" "7/18/2019" "11:09" "right" 1 6542.69 1 "Post" "PO" "Pred" "Old"
"iLumJFeKJT74QSXxlJLJx63CE" 5 "12pop" "Winnie_the_pooh_will_show_the_frisbee_to_the_duck" "left" "right" "training" "7/18/2019" "11:09" "left" 1 1602.69 1 "Post" "PO" "Pred" "Old"
"iLumJFeKJT74QSXxlJLJx63CE" 6 "3pop" "Rebecca_Rabbit_will_bring_the_pencil_to_the_chicken" "right" "left" "training" "7/18/2019" "11:09" "right" 1 2071.69 1 "Post" "PO" "Pred" "Old"
"iLumJFeKJT74QSXxlJLJx63CE" 7 "2pop" "Tigger_will_give_the_bottle_to_the_zebra" "right" "left" "training" "7/18/2019" "11:09" "right" 1 10259.69 2 "Post" "PO" "Pred" "Old"
"iLumJFeKJT74QSXxlJLJx63CE" 8 "6pop" "Piglet_will_show_the_plate_to_the_fish" "left" "right" "training" "7/18/2019" "11:09" "left" 1 1183.69 1 "Post" "PO" "Pred" "Old"
"iLumJFeKJT74QSXxlJLJx63CE" 9 "8pop" "Chase_will_give_the_biscuit_to_the_kitten" "right" "left" "training" "7/18/2019" "11:09" "right" 1 2778.69 1 "Post" "PO" "Pred" "Old"
"iLumJFeKJT74QSXxlJLJx63CE" 10 "10pop" "Boots_will_send_the_flower_to_the_caterpillar" "right" "left" "training" "7/18/2019" "11:09" "left" 0 2116.69 1 "Post" "PO" "Pred" "Old"
"iLumJFeKJT74QSXxlJLJx63CE" 11 "4pop" "George_will_send_the_brush_to_the_donkey" "left" "right" "training" "7/18/2019" "11:09" "left" 1 3772.69 1 "Post" "PO" "Pred" "Old"
"iLumJFeKJT74QSXxlJLJx63CE" 12 "5pop" "The_girl_will_pass_the_dress_to_the_sheep" "right" "left" "training" "7/18/2019" "11:09" "right" 1 3513.69 1 "Post" "PO" "Pred" "Old"
"isclaECAm1tGFGQGrJ6XxNJpp" 1 "11pop" "Marshall_will_pass_the_gloves_to_the_bee" "left" "right" "training" "6/25/2019" "11:32" "left" 1 2135.535 1 "Pre" "PO" "Pred" "Old"
"isclaECAm1tGFGQGrJ6XxNJpp" 2 "9pop" "Dora_the_explorer_will_bring_the_spoon_to_the_hippo" "left" "right" "training" "6/25/2019" "11:32" "left" 1 6209.535 1 "Pre" "PO" "Pred" "Old"
"isclaECAm1tGFGQGrJ6XxNJpp" 3 "5pop" "The_girl_will_pass_the_dress_to_the_sheep" "left" "right" "training" "6/25/2019" "11:32" "left" 1 3022.535 1 "Pre" "PO" "Pred" "Old"
"isclaECAm1tGFGQGrJ6XxNJpp" 4 "4pop" "George_will_send_the_brush_to_the_donkey" "left" "right" "training" "6/25/2019" "11:32" "left" 1 3666.535 3 "Pre" "PO" "Pred" "Old"
"isclaECAm1tGFGQGrJ6XxNJpp" 5 "8pop" "Chase_will_give_the_biscuit_to_the_kitten" "right" "left" "training" "6/25/2019" "11:32" "right" 1 4532.535 1 "Pre" "PO" "Pred" "Old"
"isclaECAm1tGFGQGrJ6XxNJpp" 6 "1pop" "The_boy_will_throw_the_cheese_to_the_bear" "left" "right" "training" "6/25/2019" "11:32" "left" 1 4415.535 2 "Pre" "PO" "Pred" "Old"
"isclaECAm1tGFGQGrJ6XxNJpp" 7 "6pop" "Piglet_will_show_the_plate_to_the_fish" "left" "right" "training" "6/25/2019" "11:32" "left" 1 2868.535 1 "Pre" "PO" "Pred" "Old"
"isclaECAm1tGFGQGrJ6XxNJpp" 8 "2pop" "Tigger_will_give_the_bottle_to_the_zebra" "right" "left" "training" "6/25/2019" "11:32" "right" 1 3205.535 4 "Pre" "PO" "Pred" "Old"
"isclaECAm1tGFGQGrJ6XxNJpp" 9 "3pop" "Rebecca_Rabbit_will_bring_the_pencil_to_the_chicken" "right" "left" "training" "6/25/2019" "11:32" "right" 1 4920.535 1 "Pre" "PO" "Pred" "Old"
"isclaECAm1tGFGQGrJ6XxNJpp" 10 "10pop" "Boots_will_send_the_flower_to_the_caterpillar" "right" "left" "training" "6/25/2019" "11:32" "right" 1 4060.535 1 "Pre" "PO" "Pred" "Old"
"isclaECAm1tGFGQGrJ6XxNJpp" 11 "7pop" "Bob_the_builder_will_throw_the_shoe_to_the_penguin" "right" "left" "training" "6/25/2019" "11:32" "right" 1 3345.535 1 "Pre" "PO" "Pred" "Old"
"IubJKuZAYluSUxIEddzxWBXf7" 1 "3pop" "Rebecca_Rabbit_will_bring_the_pencil_to_the_chicken" "right" "left" "training" "7/2/2019" "11:32" "right" 1 6654.988 1 "Pre" "PO" "Pred" "Old"
"IubJKuZAYluSUxIEddzxWBXf7" 2 "2pop" "Tigger_will_give_the_bottle_to_the_zebra" "left" "right" "training" "7/2/2019" "11:32" "left" 1 3971.988 1 "Pre" "PO" "Pred" "Old"
"IubJKuZAYluSUxIEddzxWBXf7" 3 "7pop" "Bob_the_builder_will_throw_the_shoe_to_the_penguin" "right" "left" "training" "7/2/2019" "11:32" "right" 1 3079.988 1 "Pre" "PO" "Pred" "Old"
"IubJKuZAYluSUxIEddzxWBXf7" 4 "10pop" "Boots_will_send_the_flower_to_the_caterpillar" "left" "right" "training" "7/2/2019" "11:32" "left" 1 3849.988 1 "Pre" "PO" "Pred" "Old"
"IubJKuZAYluSUxIEddzxWBXf7" 5 "6pop" "Piglet_will_show_the_plate_to_the_fish" "left" "right" "training" "7/2/2019" "11:32" "left" 1 7221.988 1 "Pre" "PO" "Pred" "Old"
"IubJKuZAYluSUxIEddzxWBXf7" 6 "4pop" "George_will_send_the_brush_to_the_donkey" "right" "left" "training" "7/2/2019" "11:32" "right" 1 3033.988 1 "Pre" "PO" "Pred" "Old"
"IubJKuZAYluSUxIEddzxWBXf7" 7 "12pop" "Winnie_the_pooh_will_show_the_frisbee_to_the_duck" "left" "right" "training" "7/2/2019" "11:32" "left" 1 4233.988 1 "Pre" "PO" "Pred" "Old"
"IubJKuZAYluSUxIEddzxWBXf7" 8 "5pop" "The_girl_will_pass_the_dress_to_the_sheep" "left" "right" "training" "7/2/2019" "11:32" "left" 1 5708.988 1 "Pre" "PO" "Pred" "Old"
"IubJKuZAYluSUxIEddzxWBXf7" 9 "9pop" "Dora_the_explorer_will_bring_the_spoon_to_the_hippo" "right" "left" "training" "7/2/2019" "11:32" "right" 1 3720.988 1 "Pre" "PO" "Pred" "Old"
"IubJKuZAYluSUxIEddzxWBXf7" 10 "11pop" "Marshall_will_pass_the_gloves_to_the_bee" "left" "right" "training" "7/2/2019" "11:32" "left" 1 1558.988 1 "Pre" "PO" "Pred" "Old"
"IubJKuZAYluSUxIEddzxWBXf7" 11 "8pop" "Chase_will_give_the_biscuit_to_the_kitten" "right" "left" "training" "7/2/2019" "11:32" "right" 1 7508.988 1 "Pre" "PO" "Pred" "Old"
"IubJKuZAYluSUxIEddzxWBXf7" 12 "1pop" "The_boy_will_throw_the_cheese_to_the_bear" "right" "left" "training" "7/2/2019" "11:32" "right" 1 4025.988 1 "Pre" "PO" "Pred" "Old"
"kS7hiMfISjB4Le7mAvmM2ifmU" 1 "1poup" "The_boy_will_throw_the_dinosaur_to_the_bear" "right" "left" "training" "7/18/2019" "10:50" "right" 1 9058 1 "Pre" "PO" "NonPred" "Old"
"kS7hiMfISjB4Le7mAvmM2ifmU" 2 "5poup" "The_girl_will_pass_the_bird_to_the_sheep" "left" "right" "training" "7/18/2019" "10:50" "left" 1 7280 1 "Pre" "PO" "NonPred" "Old"
"kS7hiMfISjB4Le7mAvmM2ifmU" 3 "4poup" "George_will_send_the_fox_to_the_donkey" "right" "left" "training" "7/18/2019" "10:50" "right" 1 2525 1 "Pre" "PO" "NonPred" "Old"
"kS7hiMfISjB4Le7mAvmM2ifmU" 4 "7poup" "Bob_the_builder_will_throw_the_dog_to_the_penguin" "right" "left" "training" "7/18/2019" "10:50" "right" 1 2212 1 "Pre" "PO" "NonPred" "Old"
"kS7hiMfISjB4Le7mAvmM2ifmU" 5 "9poup" "Dora_the_explorer_will_bring_the_cow_to_the_hippo" "right" "left" "training" "7/18/2019" "10:50" "right" 1 3238 1 "Pre" "PO" "NonPred" "Old"
"kS7hiMfISjB4Le7mAvmM2ifmU" 6 "2poup" "Tigger_will_give_the_butterfly_to_the_zebra" "left" "right" "training" "7/18/2019" "10:50" "left" 1 2848 1 "Pre" "PO" "NonPred" "Old"
"kS7hiMfISjB4Le7mAvmM2ifmU" 7 "10poup" "Boots_will_send_the_pig_to_the_caterpillar" "left" "right" "training" "7/18/2019" "10:50" "left" 1 2137 1 "Pre" "PO" "NonPred" "Old"
"kS7hiMfISjB4Le7mAvmM2ifmU" 8 "11poup" "Marshall_will_pass_the_goat_to_the_bee" "right" "left" "training" "7/18/2019" "10:50" "right" 1 1882 1 "Pre" "PO" "NonPred" "Old"
"kS7hiMfISjB4Le7mAvmM2ifmU" 9 "8poup" "Chase_will_give_the_deer_to_the_kitten" "left" "right" "training" "7/18/2019" "10:50" "left" 1 3732 1 "Pre" "PO" "NonPred" "Old"
"kS7hiMfISjB4Le7mAvmM2ifmU" 10 "6poup" "Piglet_will_show_the_ant_to_the_fish" "right" "left" "training" "7/18/2019" "10:50" "right" 1 1918 1 "Pre" "PO" "NonPred" "Old"
"kS7hiMfISjB4Le7mAvmM2ifmU" 11 "3poup" "Rebecca_Rabbit_will_bring_the_frog_to_the_chicken" "left" "right" "training" "7/18/2019" "10:50" "left" 1 1484 1 "Pre" "PO" "NonPred" "Old"
"kS7hiMfISjB4Le7mAvmM2ifmU" 12 "12poup" "Winnie_the_pooh_will_show_the_owl_to_the_duck" "left" "right" "training" "7/18/2019" "10:50" "left" 1 2859 1 "Pre" "PO" "NonPred" "Old"
"kYyYeL2XWRmISezkKv8fgKLPi" 1 "3poup" "Rebecca_Rabbit_will_bring_the_frog_to_the_chicken" "left" "right" "training" "7/8/2019" "9:39" "right" 0 7826.435 1 "Pre" "PO" "NonPred" "Old"
"kYyYeL2XWRmISezkKv8fgKLPi" 2 "2poup" "Tigger_will_give_the_butterfly_to_the_zebra" "left" "right" "training" "7/8/2019" "9:39" "left" 1 6528.435 1 "Pre" "PO" "NonPred" "Old"
"kYyYeL2XWRmISezkKv8fgKLPi" 3 "1poup" "The_boy_will_throw_the_dinosaur_to_the_bear" "left" "right" "training" "7/8/2019" "9:39" "left" 1 4006.435 1 "Pre" "PO" "NonPred" "Old"
"kYyYeL2XWRmISezkKv8fgKLPi" 4 "11poup" "Marshall_will_pass_the_goat_to_the_bee" "right" "left" "training" "7/8/2019" "9:39" "right" 1 2995.435 1 "Pre" "PO" "NonPred" "Old"
"kYyYeL2XWRmISezkKv8fgKLPi" 5 "10poup" "Boots_will_send_the_pig_to_the_caterpillar" "right" "left" "training" "7/8/2019" "9:39" "right" 1 3876.435 1 "Pre" "PO" "NonPred" "Old"
"kYyYeL2XWRmISezkKv8fgKLPi" 6 "4poup" "George_will_send_the_fox_to_the_donkey" "left" "right" "training" "7/8/2019" "9:39" "left" 1 5062.435 1 "Pre" "PO" "NonPred" "Old"
"kYyYeL2XWRmISezkKv8fgKLPi" 7 "7poup" "Bob_the_builder_will_throw_the_dog_to_the_penguin" "right" "left" "training" "7/8/2019" "9:39" "right" 1 8418.435 1 "Pre" "PO" "NonPred" "Old"
"kYyYeL2XWRmISezkKv8fgKLPi" 8 "9poup" "Dora_the_explorer_will_bring_the_cow_to_the_hippo" "right" "left" "training" "7/8/2019" "9:39" "right" 1 16958.435 1 "Pre" "PO" "NonPred" "Old"
"kYyYeL2XWRmISezkKv8fgKLPi" 9 "12poup" "Winnie_the_pooh_will_show_the_owl_to_the_duck" "left" "right" "training" "7/8/2019" "9:39" "left" 1 13411.435 1 "Pre" "PO" "NonPred" "Old"
"kYyYeL2XWRmISezkKv8fgKLPi" 10 "6poup" "Piglet_will_show_the_ant_to_the_fish" "right" "left" "training" "7/8/2019" "9:39" "right" 1 6001.435 1 "Pre" "PO" "NonPred" "Old"
"kYyYeL2XWRmISezkKv8fgKLPi" 11 "5poup" "The_girl_will_pass_the_bird_to_the_sheep" "right" "left" "training" "7/8/2019" "9:39" "right" 1 6223.435 1 "Pre" "PO" "NonPred" "Old"
"kYyYeL2XWRmISezkKv8fgKLPi" 12 "8poup" "Chase_will_give_the_deer_to_the_kitten" "left" "right" "training" "7/8/2019" "9:39" "left" 1 8058.435 1 "Pre" "PO" "NonPred" "Old"
"ls4zgdQsgZ4Ay2nkrzQkj5Wo0" 1 "12pop" "Winnie_the_pooh_will_show_the_frisbee_to_the_duck" "right" "left" "training" "06/10/2019" "11:21" "right" 1 7507.592 1 "Post" "PO" "Pred" "Old"
"ls4zgdQsgZ4Ay2nkrzQkj5Wo0" 2 "3pop" "Rebecca_Rabbit_will_bring_the_pencil_to_the_chicken" "left" "right" "training" "06/10/2019" "11:21" "left" 1 2137.592 1 "Post" "PO" "Pred" "Old"
"ls4zgdQsgZ4Ay2nkrzQkj5Wo0" 3 "6pop" "Piglet_will_show_the_plate_to_the_fish" "right" "left" "training" "06/10/2019" "11:21" "right" 1 1370.592 1 "Post" "PO" "Pred" "Old"
"ls4zgdQsgZ4Ay2nkrzQkj5Wo0" 4 "2pop" "Tigger_will_give_the_bottle_to_the_zebra" "left" "right" "training" "06/10/2019" "11:21" "left" 1 2271.592 1 "Post" "PO" "Pred" "Old"
"ls4zgdQsgZ4Ay2nkrzQkj5Wo0" 5 "11pop" "Marshall_will_pass_the_gloves_to_the_bee" "left" "right" "training" "06/10/2019" "11:21" "left" 1 1411.592 1 "Post" "PO" "Pred" "Old"
"ls4zgdQsgZ4Ay2nkrzQkj5Wo0" 6 "10pop" "Boots_will_send_the_flower_to_the_caterpillar" "right" "left" "training" "06/10/2019" "11:21" "right" 1 1697.592 1 "Post" "PO" "Pred" "Old"
"ls4zgdQsgZ4Ay2nkrzQkj5Wo0" 7 "1pop" "The_boy_will_throw_the_cheese_to_the_bear" "right" "left" "training" "06/10/2019" "11:21" "right" 1 2344.592 1 "Post" "PO" "Pred" "Old"
"ls4zgdQsgZ4Ay2nkrzQkj5Wo0" 8 "8pop" "Chase_will_give_the_biscuit_to_the_kitten" "right" "left" "training" "06/10/2019" "11:21" "right" 1 1761.592 1 "Post" "PO" "Pred" "Old"
"ls4zgdQsgZ4Ay2nkrzQkj5Wo0" 9 "5pop" "The_girl_will_pass_the_dress_to_the_sheep" "right" "left" "training" "06/10/2019" "11:21" "right" 1 2004.592 1 "Post" "PO" "Pred" "Old"
"ls4zgdQsgZ4Ay2nkrzQkj5Wo0" 10 "7pop" "Bob_the_builder_will_throw_the_shoe_to_the_penguin" "left" "right" "training" "06/10/2019" "11:21" "left" 1 1964.592 1 "Post" "PO" "Pred" "Old"
"ls4zgdQsgZ4Ay2nkrzQkj5Wo0" 11 "9pop" "Dora_the_explorer_will_bring_the_spoon_to_the_hippo" "left" "right" "training" "06/10/2019" "11:21" "left" 1 2700.592 1 "Post" "PO" "Pred" "Old"
"ls4zgdQsgZ4Ay2nkrzQkj5Wo0" 12 "4pop" "George_will_send_the_brush_to_the_donkey" "left" "right" "training" "06/10/2019" "11:21" "left" 1 2492.592 1 "Post" "PO" "Pred" "Old"
"mADcRFAqiA2VCWmdKrjXLNlRi" 1 "2pop" "Tigger_will_give_the_bottle_to_the_zebra" "right" "left" "training" "7/17/2019" "9:55" "right" 1 9260.966 1 "Pre" "PO" "Pred" "Old"
"mADcRFAqiA2VCWmdKrjXLNlRi" 2 "9pop" "Dora_the_explorer_will_bring_the_spoon_to_the_hippo" "right" "left" "training" "7/17/2019" "9:55" "right" 1 3944.966 1 "Pre" "PO" "Pred" "Old"
"mADcRFAqiA2VCWmdKrjXLNlRi" 3 "7pop" "Bob_the_builder_will_throw_the_shoe_to_the_penguin" "left" "right" "training" "7/17/2019" "9:55" "left" 1 615.966 1 "Pre" "PO" "Pred" "Old"
"mADcRFAqiA2VCWmdKrjXLNlRi" 4 "12pop" "Winnie_the_pooh_will_show_the_frisbee_to_the_duck" "left" "right" "training" "7/17/2019" "9:55" "left" 1 2783.966 1 "Pre" "PO" "Pred" "Old"
"mADcRFAqiA2VCWmdKrjXLNlRi" 5 "10pop" "Boots_will_send_the_flower_to_the_caterpillar" "left" "right" "training" "7/17/2019" "9:55" "right" 0 2556.966 1 "Pre" "PO" "Pred" "Old"
"mADcRFAqiA2VCWmdKrjXLNlRi" 6 "6pop" "Piglet_will_show_the_plate_to_the_fish" "right" "left" "training" "7/17/2019" "9:55" "right" 1 1445.966 1 "Pre" "PO" "Pred" "Old"
"mADcRFAqiA2VCWmdKrjXLNlRi" 7 "11pop" "Marshall_will_pass_the_gloves_to_the_bee" "left" "right" "training" "7/17/2019" "9:55" "left" 1 1345.966 1 "Pre" "PO" "Pred" "Old"
"mADcRFAqiA2VCWmdKrjXLNlRi" 8 "5pop" "The_girl_will_pass_the_dress_to_the_sheep" "left" "right" "training" "7/17/2019" "9:55" "left" 1 6018.966 1 "Pre" "PO" "Pred" "Old"
"mADcRFAqiA2VCWmdKrjXLNlRi" 9 "1pop" "The_boy_will_throw_the_cheese_to_the_bear" "right" "left" "training" "7/17/2019" "9:55" "right" 1 4204.966 1 "Pre" "PO" "Pred" "Old"
"mADcRFAqiA2VCWmdKrjXLNlRi" 10 "3pop" "Rebecca_Rabbit_will_bring_the_pencil_to_the_chicken" "right" "left" "training" "7/17/2019" "9:55" "right" 1 2248.966 1 "Pre" "PO" "Pred" "Old"
"mADcRFAqiA2VCWmdKrjXLNlRi" 11 "8pop" "Chase_will_give_the_biscuit_to_the_kitten" "right" "left" "training" "7/17/2019" "9:55" "right" 1 2673.966 1 "Pre" "PO" "Pred" "Old"
"mADcRFAqiA2VCWmdKrjXLNlRi" 12 "4pop" "George_will_send_the_brush_to_the_donkey" "left" "right" "training" "7/17/2019" "9:55" "left" 1 1214.966 1 "Pre" "PO" "Pred" "Old"
"mAHHSzVZTjvhQSUAEWxAxdAgm" 1 "5pop" "The_girl_will_pass_the_dress_to_the_sheep" "left" "right" "training" "7/17/2019" "9:55" "left" 1 8433.342 1 "Post" "PO" "Pred" "Old"
"mAHHSzVZTjvhQSUAEWxAxdAgm" 2 "2pop" "Tigger_will_give_the_bottle_to_the_zebra" "left" "right" "training" "7/17/2019" "9:55" "left" 1 4759.342 1 "Post" "PO" "Pred" "Old"
"mAHHSzVZTjvhQSUAEWxAxdAgm" 3 "11pop" "Marshall_will_pass_the_gloves_to_the_bee" "left" "right" "training" "7/17/2019" "9:55" "left" 1 4942.342 1 "Post" "PO" "Pred" "Old"
"mAHHSzVZTjvhQSUAEWxAxdAgm" 4 "7pop" "Bob_the_builder_will_throw_the_shoe_to_the_penguin" "right" "left" "training" "7/17/2019" "9:55" "right" 1 6439.342 1 "Post" "PO" "Pred" "Old"
"mAHHSzVZTjvhQSUAEWxAxdAgm" 5 "1pop" "The_boy_will_throw_the_cheese_to_the_bear" "left" "right" "training" "7/17/2019" "9:55" "left" 1 4709.342 1 "Post" "PO" "Pred" "Old"
"mAHHSzVZTjvhQSUAEWxAxdAgm" 6 "3pop" "Rebecca_Rabbit_will_bring_the_pencil_to_the_chicken" "right" "left" "training" "7/17/2019" "9:55" "right" 1 1538.342 1 "Post" "PO" "Pred" "Old"
"mAHHSzVZTjvhQSUAEWxAxdAgm" 7 "4pop" "George_will_send_the_brush_to_the_donkey" "right" "left" "training" "7/17/2019" "9:55" "right" 1 3669.342 1 "Post" "PO" "Pred" "Old"
"mAHHSzVZTjvhQSUAEWxAxdAgm" 8 "6pop" "Piglet_will_show_the_plate_to_the_fish" "left" "right" "training" "7/17/2019" "9:55" "left" 1 6072.342 1 "Post" "PO" "Pred" "Old"
"mAHHSzVZTjvhQSUAEWxAxdAgm" 9 "8pop" "Chase_will_give_the_biscuit_to_the_kitten" "right" "left" "training" "7/17/2019" "9:55" "right" 1 2786.342 1 "Post" "PO" "Pred" "Old"
"mAHHSzVZTjvhQSUAEWxAxdAgm" 10 "10pop" "Boots_will_send_the_flower_to_the_caterpillar" "left" "right" "training" "7/17/2019" "9:55" "left" 1 3344.342 1 "Post" "PO" "Pred" "Old"
"mAHHSzVZTjvhQSUAEWxAxdAgm" 11 "12pop" "Winnie_the_pooh_will_show_the_frisbee_to_the_duck" "right" "left" "training" "7/17/2019" "9:55" "right" 1 2579.342 1 "Post" "PO" "Pred" "Old"
"mAHHSzVZTjvhQSUAEWxAxdAgm" 12 "9pop" "Dora_the_explorer_will_bring_the_spoon_to_the_hippo" "right" "left" "training" "7/17/2019" "9:55" "right" 1 3523.342 1 "Post" "PO" "Pred" "Old"
"MIc4v8dmnHxthlAYf9jNB5p65" 1 "1dop" "The_boy_will_throw_the_bear_the_cheese" "right" "left" "training" "6/28/2019" "10:49" "right" 1 5321.661 1 "Post" "DO" "Pred" "Old"
"MIc4v8dmnHxthlAYf9jNB5p65" 2 "8dop" "Chase_will_give_the_kitten_the_bisuit" "left" "right" "training" "6/28/2019" "10:49" "left" 1 3800.661 1 "Post" "DO" "Pred" "Old"
"MIc4v8dmnHxthlAYf9jNB5p65" 3 "5dop" "The_girl_will_pass_the_sheep_the_dress" "left" "right" "training" "6/28/2019" "10:49" "left" 1 5435.661 1 "Post" "DO" "Pred" "Old"
"MIc4v8dmnHxthlAYf9jNB5p65" 4 "3dop" "Rebecca_Rabbit_will_bring_the_chicken_the_pencil" "left" "right" "training" "6/28/2019" "10:49" "left" 1 6412.661 1 "Post" "DO" "Pred" "Old"
"MIc4v8dmnHxthlAYf9jNB5p65" 5 "10dop" "Boots_will_send_the_caterpillar_the_flower" "right" "left" "training" "6/28/2019" "10:49" "right" 1 1566.661 1 "Post" "DO" "Pred" "Old"
"MIc4v8dmnHxthlAYf9jNB5p65" 6 "9dop" "Dora_the_explorer_will_bring_the_hippo_the_spoon" "left" "right" "training" "6/28/2019" "10:49" "left" 1 6288.661 1 "Post" "DO" "Pred" "Old"
"MIc4v8dmnHxthlAYf9jNB5p65" 7 "6dop" "Piglet_will_show_the_fish_the_plate" "left" "right" "training" "6/28/2019" "10:49" "left" 1 1321.661 1 "Post" "DO" "Pred" "Old"
"MIc4v8dmnHxthlAYf9jNB5p65" 8 "2dop" "Tigger_will_give_the_zebra_the_bottle" "right" "left" "training" "6/28/2019" "10:49" "right" 1 4731.661 1 "Post" "DO" "Pred" "Old"
"MIc4v8dmnHxthlAYf9jNB5p65" 9 "4dop" "George_will_send_the_donkey_the_brush" "left" "right" "training" "6/28/2019" "10:49" "left" 1 1864.661 1 "Post" "DO" "Pred" "Old"
"MIc4v8dmnHxthlAYf9jNB5p65" 10 "7dop" "Bob_the_builder_will_throw_the_penguin_the_shoe" "right" "left" "training" "6/28/2019" "10:49" "right" 1 2310.661 1 "Post" "DO" "Pred" "Old"
"MIc4v8dmnHxthlAYf9jNB5p65" 11 "11dop" "Marshall_will_pass_the_bee_the_gloves" "right" "left" "training" "6/28/2019" "10:49" "right" 1 2926.661 1 "Post" "DO" "Pred" "Old"
"MIc4v8dmnHxthlAYf9jNB5p65" 12 "12dop" "Winnie_the_pooh_will_show_the_duck_the_frisbee" "right" "left" "training" "6/28/2019" "10:49" "right" 1 1517.661 1 "Post" "DO" "Pred" "Old"
"n0QM2830f1sZdddGcFJM7fi0a" 1 "5pop" "The_girl_will_pass_the_dress_to_the_sheep" "right" "left" "training" "7/18/2019" "11:09" "right" 1 6329.342 1 "Post" "PO" "Pred" "Old"
"n0QM2830f1sZdddGcFJM7fi0a" 2 "4pop" "George_will_send_the_brush_to_the_donkey" "right" "left" "training" "7/18/2019" "11:09" "right" 1 1668.342 1 "Post" "PO" "Pred" "Old"
"n0QM2830f1sZdddGcFJM7fi0a" 3 "11pop" "Marshall_will_pass_the_gloves_to_the_bee" "left" "right" "training" "7/18/2019" "11:09" "left" 1 1446.342 1 "Post" "PO" "Pred" "Old"
"n0QM2830f1sZdddGcFJM7fi0a" 4 "9pop" "Dora_the_explorer_will_bring_the_spoon_to_the_hippo" "left" "right" "training" "7/18/2019" "11:09" "left" 1 4374.342 1 "Post" "PO" "Pred" "Old"
"n0QM2830f1sZdddGcFJM7fi0a" 5 "6pop" "Piglet_will_show_the_plate_to_the_fish" "right" "left" "training" "7/18/2019" "11:09" "right" 1 1783.342 1 "Post" "PO" "Pred" "Old"
"n0QM2830f1sZdddGcFJM7fi0a" 6 "1pop" "The_boy_will_throw_the_cheese_to_the_bear" "right" "left" "training" "7/18/2019" "11:09" "right" 1 3443.342 1 "Post" "PO" "Pred" "Old"
"n0QM2830f1sZdddGcFJM7fi0a" 7 "2pop" "Tigger_will_give_the_bottle_to_the_zebra" "left" "right" "training" "7/18/2019" "11:09" "left" 1 1791.342 1 "Post" "PO" "Pred" "Old"
"n0QM2830f1sZdddGcFJM7fi0a" 8 "7pop" "Bob_the_builder_will_throw_the_shoe_to_the_penguin" "left" "right" "training" "7/18/2019" "11:09" "left" 1 863.342000000001 1 "Post" "PO" "Pred" "Old"
"n0QM2830f1sZdddGcFJM7fi0a" 9 "8pop" "Chase_will_give_the_biscuit_to_the_kitten" "right" "left" "training" "7/18/2019" "11:09" "right" 1 3576.342 1 "Post" "PO" "Pred" "Old"
"n0QM2830f1sZdddGcFJM7fi0a" 10 "10pop" "Boots_will_send_the_flower_to_the_caterpillar" "right" "left" "training" "7/18/2019" "11:09" "right" 1 3285.342 1 "Post" "PO" "Pred" "Old"
"n0QM2830f1sZdddGcFJM7fi0a" 11 "12pop" "Winnie_the_pooh_will_show_the_frisbee_to_the_duck" "left" "right" "training" "7/18/2019" "11:09" "left" 1 854.342000000001 1 "Post" "PO" "Pred" "Old"
"n0QM2830f1sZdddGcFJM7fi0a" 12 "3pop" "Rebecca_Rabbit_will_bring_the_pencil_to_the_chicken" "left" "right" "training" "7/18/2019" "11:09" "right" 0 3133.342 1 "Post" "PO" "Pred" "Old"
"n1rv5Hr5IS81uEHeBAJK9gCzL" 1 "9poup" "Dora_the_explorer_will_bring_the_cow_to_the_hippo" "right" "left" "training" "05/03/2019" "16:21" "right" 1 2691.756 1 "Pre" "PO" "NonPred" "Old"
"n1rv5Hr5IS81uEHeBAJK9gCzL" 2 "3poup" "Rebecca_Rabbit_will_bring_the_frog_to_the_chicken" "left" "right" "training" "05/03/2019" "16:21" "left" 1 2329.756 1 "Pre" "PO" "NonPred" "Old"
"n1rv5Hr5IS81uEHeBAJK9gCzL" 3 "8poup" "Chase_will_give_the_deer_to_the_kitten" "left" "right" "training" "05/03/2019" "16:21" "left" 1 2049.756 1 "Pre" "PO" "NonPred" "Old"
"n1rv5Hr5IS81uEHeBAJK9gCzL" 4 "5poup" "The_girl_will_pass_the_bird_to_the_sheep" "left" "right" "training" "05/03/2019" "16:21" "left" 1 5764.756 1 "Pre" "PO" "NonPred" "Old"
"n1rv5Hr5IS81uEHeBAJK9gCzL" 5 "11poup" "Marshall_will_pass_the_goat_to_the_bee" "right" "left" "training" "05/03/2019" "16:21" "right" 1 4231.756 1 "Pre" "PO" "NonPred" "Old"
"n1rv5Hr5IS81uEHeBAJK9gCzL" 6 "10poup" "Boots_will_send_the_pig_to_the_caterpillar" "right" "left" "training" "05/03/2019" "16:21" "right" 1 1326.756 1 "Pre" "PO" "NonPred" "Old"
"n1rv5Hr5IS81uEHeBAJK9gCzL" 7 "4poup" "George_will_send_the_fox_to_the_donkey" "left" "right" "training" "05/03/2019" "16:21" "left" 1 2968.756 1 "Pre" "PO" "NonPred" "Old"
"n1rv5Hr5IS81uEHeBAJK9gCzL" 8 "6poup" "Piglet_will_show_the_ant_to_the_fish" "right" "left" "training" "05/03/2019" "16:21" "right" 1 2033.756 1 "Pre" "PO" "NonPred" "Old"
"n1rv5Hr5IS81uEHeBAJK9gCzL" 9 "7poup" "Bob_the_builder_will_throw_the_dog_to_the_penguin" "left" "right" "training" "05/03/2019" "16:21" "left" 1 2204.756 1 "Pre" "PO" "NonPred" "Old"
"n1rv5Hr5IS81uEHeBAJK9gCzL" 10 "12poup" "Winnie_the_pooh_will_show_the_owl_to_the_duck" "left" "right" "training" "05/03/2019" "16:21" "left" 1 4827.756 1 "Pre" "PO" "NonPred" "Old"
"n1rv5Hr5IS81uEHeBAJK9gCzL" 11 "1poup" "The_boy_will_throw_the_dinosaur_to_the_bear" "right" "left" "training" "05/03/2019" "16:21" "right" 1 1476.756 1 "Pre" "PO" "NonPred" "Old"
"n1rv5Hr5IS81uEHeBAJK9gCzL" 12 "2poup" "Tigger_will_give_the_butterfly_to_the_zebra" "right" "left" "training" "05/03/2019" "16:21" "right" 1 1017.756 1 "Pre" "PO" "NonPred" "Old"
"na6JemgEBhLGSAFLy5wX7Gw3O" 1 "7pop" "Bob_the_builder_will_throw_the_shoe_to_the_penguin" "right" "left" "training" "7/2/2019" "9:08" "right" 1 9058.69 1 "Pre" "PO" "Pred" "Old"
"na6JemgEBhLGSAFLy5wX7Gw3O" 2 "10pop" "Boots_will_send_the_flower_to_the_caterpillar" "left" "right" "training" "7/2/2019" "9:08" "left" 1 3112.69 1 "Pre" "PO" "Pred" "Old"
"na6JemgEBhLGSAFLy5wX7Gw3O" 3 "4pop" "George_will_send_the_brush_to_the_donkey" "right" "left" "training" "7/2/2019" "9:08" "right" 1 4046.69 1 "Pre" "PO" "Pred" "Old"
"na6JemgEBhLGSAFLy5wX7Gw3O" 4 "11pop" "Marshall_will_pass_the_gloves_to_the_bee" "right" "left" "training" "7/2/2019" "9:08" "right" 1 4653.69 1 "Pre" "PO" "Pred" "Old"
"na6JemgEBhLGSAFLy5wX7Gw3O" 5 "8pop" "Chase_will_give_the_biscuit_to_the_kitten" "left" "right" "training" "7/2/2019" "9:08" "left" 1 5829.69 1 "Pre" "PO" "Pred" "Old"
"na6JemgEBhLGSAFLy5wX7Gw3O" 6 "3pop" "Rebecca_Rabbit_will_bring_the_pencil_to_the_chicken" "left" "right" "training" "7/2/2019" "9:08" "left" 1 9467.69 1 "Pre" "PO" "Pred" "Old"
"na6JemgEBhLGSAFLy5wX7Gw3O" 7 "6pop" "Piglet_will_show_the_plate_to_the_fish" "right" "left" "training" "7/2/2019" "9:08" "right" 1 4834.69 1 "Pre" "PO" "Pred" "Old"
"na6JemgEBhLGSAFLy5wX7Gw3O" 8 "2pop" "Tigger_will_give_the_bottle_to_the_zebra" "left" "right" "training" "7/2/2019" "9:08" "left" 1 17122.69 1 "Pre" "PO" "Pred" "Old"
"na6JemgEBhLGSAFLy5wX7Gw3O" 9 "1pop" "The_boy_will_throw_the_cheese_to_the_bear" "right" "left" "training" "7/2/2019" "9:08" "left" 0 2285.69 1 "Pre" "PO" "Pred" "Old"
"na6JemgEBhLGSAFLy5wX7Gw3O" 10 "12pop" "Winnie_the_pooh_will_show_the_frisbee_to_the_duck" "left" "right" "training" "7/2/2019" "9:08" "left" 1 11149.69 1 "Pre" "PO" "Pred" "Old"
"na6JemgEBhLGSAFLy5wX7Gw3O" 11 "5pop" "The_girl_will_pass_the_dress_to_the_sheep" "right" "left" "training" "7/2/2019" "9:08" "right" 1 3454.69 1 "Pre" "PO" "Pred" "Old"
"na6JemgEBhLGSAFLy5wX7Gw3O" 12 "9pop" "Dora_the_explorer_will_bring_the_spoon_to_the_hippo" "left" "right" "training" "7/2/2019" "9:08" "left" 1 4645.69 1 "Pre" "PO" "Pred" "Old"
"nb3vS6MAGwB57xfdb8LxM8R21" 1 "6dop" "Piglet_will_show_the_fish_the_plate" "right" "left" "training" "7/18/2019" "14:45" "right" 1 12330.339 1 "Post" "DO" "Pred" "Old"
"nb3vS6MAGwB57xfdb8LxM8R21" 2 "12dop" "Winnie_the_pooh_will_show_the_duck_the_frisbee" "right" "left" "training" "7/18/2019" "14:45" "right" 1 1842.339 1 "Post" "DO" "Pred" "Old"
"nb3vS6MAGwB57xfdb8LxM8R21" 3 "9dop" "Dora_the_explorer_will_bring_the_hippo_the_spoon" "right" "left" "training" "7/18/2019" "14:45" "right" 1 9527.339 1 "Post" "DO" "Pred" "Old"
"nb3vS6MAGwB57xfdb8LxM8R21" 4 "10dop" "Boots_will_send_the_caterpillar_the_flower" "right" "left" "training" "7/18/2019" "14:45" "right" 1 3115.339 1 "Post" "DO" "Pred" "Old"
"nb3vS6MAGwB57xfdb8LxM8R21" 5 "8dop" "Chase_will_give_the_kitten_the_bisuit" "right" "left" "training" "7/18/2019" "14:45" "right" 1 3402.339 1 "Post" "DO" "Pred" "Old"
"nb3vS6MAGwB57xfdb8LxM8R21" 6 "11dop" "Marshall_will_pass_the_bee_the_gloves" "left" "right" "training" "7/18/2019" "14:45" "left" 1 10641.339 1 "Post" "DO" "Pred" "Old"
"nb3vS6MAGwB57xfdb8LxM8R21" 7 "5dop" "The_girl_will_pass_the_sheep_the_dress" "left" "right" "training" "7/18/2019" "14:45" "left" 1 2326.339 1 "Post" "DO" "Pred" "Old"
"nb3vS6MAGwB57xfdb8LxM8R21" 8 "2dop" "Tigger_will_give_the_zebra_the_bottle" "left" "right" "training" "7/18/2019" "14:45" "left" 1 2694.339 1 "Post" "DO" "Pred" "Old"
"nb3vS6MAGwB57xfdb8LxM8R21" 9 "3dop" "Rebecca_Rabbit_will_bring_the_chicken_the_pencil" "left" "right" "training" "7/18/2019" "14:45" "left" 1 833.339 1 "Post" "DO" "Pred" "Old"
"nb3vS6MAGwB57xfdb8LxM8R21" 10 "1dop" "The_boy_will_throw_the_bear_the_cheese" "left" "right" "training" "7/18/2019" "14:45" "left" 1 3501.339 1 "Post" "DO" "Pred" "Old"
"nb3vS6MAGwB57xfdb8LxM8R21" 11 "7dop" "Bob_the_builder_will_throw_the_penguin_the_shoe" "right" "left" "training" "7/18/2019" "14:45" "left" 0 4491.339 1 "Post" "DO" "Pred" "Old"
"nb3vS6MAGwB57xfdb8LxM8R21" 12 "4dop" "George_will_send_the_donkey_the_brush" "left" "right" "training" "7/18/2019" "14:45" "left" 1 2694.339 1 "Post" "DO" "Pred" "Old"
"nd74ahWCLiQTJaYcHMUyLlKle" 1 "4pop" "George_will_send_the_brush_to_the_donkey" "left" "right" "training" "4/18/2019" "13:26" "left" 1 6802.414 1 "Pre" "PO" "Pred" "Old"
"nd74ahWCLiQTJaYcHMUyLlKle" 2 "5pop" "The_girl_will_pass_the_dress_to_the_sheep" "left" "right" "training" "4/18/2019" "13:26" "left" 1 2200.414 1 "Pre" "PO" "Pred" "Old"
"nd74ahWCLiQTJaYcHMUyLlKle" 3 "7pop" "Bob_the_builder_will_throw_the_shoe_to_the_penguin" "left" "right" "training" "4/18/2019" "13:26" "left" 1 3029.414 1 "Pre" "PO" "Pred" "Old"
"nd74ahWCLiQTJaYcHMUyLlKle" 4 "11pop" "Marshall_will_pass_the_gloves_to_the_bee" "left" "right" "training" "4/18/2019" "13:26" "left" 1 1564.414 1 "Pre" "PO" "Pred" "Old"
"nd74ahWCLiQTJaYcHMUyLlKle" 5 "9pop" "Dora_the_explorer_will_bring_the_spoon_to_the_hippo" "right" "left" "training" "4/18/2019" "13:26" "left" 0 4437.414 1 "Pre" "PO" "Pred" "Old"
"nd74ahWCLiQTJaYcHMUyLlKle" 6 "1pop" "The_boy_will_throw_the_cheese_to_the_bear" "right" "left" "training" "4/18/2019" "13:26" "left" 0 8483.414 1 "Pre" "PO" "Pred" "Old"
"nd74ahWCLiQTJaYcHMUyLlKle" 7 "12pop" "Winnie_the_pooh_will_show_the_frisbee_to_the_duck" "right" "left" "training" "4/18/2019" "13:26" "right" 1 7421.414 1 "Pre" "PO" "Pred" "Old"
"nd74ahWCLiQTJaYcHMUyLlKle" 8 "8pop" "Chase_will_give_the_biscuit_to_the_kitten" "right" "left" "training" "4/18/2019" "13:26" "right" 1 4210.414 1 "Pre" "PO" "Pred" "Old"
"nd74ahWCLiQTJaYcHMUyLlKle" 9 "2pop" "Tigger_will_give_the_bottle_to_the_zebra" "right" "left" "training" "4/18/2019" "13:26" "right" 1 2375.414 1 "Pre" "PO" "Pred" "Old"
"nd74ahWCLiQTJaYcHMUyLlKle" 10 "10pop" "Boots_will_send_the_flower_to_the_caterpillar" "left" "right" "training" "4/18/2019" "13:26" "left" 1 7868.414 1 "Pre" "PO" "Pred" "Old"
"nd74ahWCLiQTJaYcHMUyLlKle" 11 "6pop" "Piglet_will_show_the_plate_to_the_fish" "left" "right" "training" "4/18/2019" "13:26" "left" 1 1875.414 1 "Pre" "PO" "Pred" "Old"
"nd74ahWCLiQTJaYcHMUyLlKle" 12 "3pop" "Rebecca_Rabbit_will_bring_the_pencil_to_the_chicken" "right" "left" "training" "4/18/2019" "13:26" "right" 1 4125.414 1 "Pre" "PO" "Pred" "Old"
"nmTDvGRZx8JwbJ8saKJPKN36o" 1 "7poup" "Bob_the_builder_will_throw_the_dog_to_the_penguin" "left" "right" "training" "7/17/2019" "10:14" "left" 1 8110.298 1 "Post" "PO" "NonPred" "Old"
"nmTDvGRZx8JwbJ8saKJPKN36o" 2 "10poup" "Boots_will_send_the_pig_to_the_caterpillar" "left" "right" "training" "7/17/2019" "10:14" "left" 1 1701.298 1 "Post" "PO" "NonPred" "Old"
"nmTDvGRZx8JwbJ8saKJPKN36o" 3 "2poup" "Tigger_will_give_the_butterfly_to_the_zebra" "right" "left" "training" "7/17/2019" "10:14" "right" 1 3091.298 1 "Post" "PO" "NonPred" "Old"
"nmTDvGRZx8JwbJ8saKJPKN36o" 4 "12poup" "Winnie_the_pooh_will_show_the_owl_to_the_duck" "right" "left" "training" "7/17/2019" "10:14" "right" 1 1272.298 1 "Post" "PO" "NonPred" "Old"
"nmTDvGRZx8JwbJ8saKJPKN36o" 5 "3poup" "Rebecca_Rabbit_will_bring_the_frog_to_the_chicken" "right" "left" "training" "7/17/2019" "10:14" "left" 0 1063.298 1 "Post" "PO" "NonPred" "Old"
"nmTDvGRZx8JwbJ8saKJPKN36o" 6 "1poup" "The_boy_will_throw_the_dinosaur_to_the_bear" "right" "left" "training" "7/17/2019" "10:14" "left" 0 1363.298 1 "Post" "PO" "NonPred" "Old"
"nmTDvGRZx8JwbJ8saKJPKN36o" 7 "5poup" "The_girl_will_pass_the_bird_to_the_sheep" "left" "right" "training" "7/17/2019" "10:14" "right" 0 5387.298 1 "Post" "PO" "NonPred" "Old"
"nmTDvGRZx8JwbJ8saKJPKN36o" 8 "4poup" "George_will_send_the_fox_to_the_donkey" "right" "left" "training" "7/17/2019" "10:14" "left" 0 2637.298 1 "Post" "PO" "NonPred" "Old"
"nmTDvGRZx8JwbJ8saKJPKN36o" 9 "8poup" "Chase_will_give_the_deer_to_the_kitten" "left" "right" "training" "7/17/2019" "10:14" "left" 1 4322.298 1 "Post" "PO" "NonPred" "Old"
"nmTDvGRZx8JwbJ8saKJPKN36o" 10 "9poup" "Dora_the_explorer_will_bring_the_cow_to_the_hippo" "left" "right" "training" "7/17/2019" "10:14" "left" 1 524.298000000001 1 "Post" "PO" "NonPred" "Old"
"nmTDvGRZx8JwbJ8saKJPKN36o" 11 "11poup" "Marshall_will_pass_the_goat_to_the_bee" "right" "left" "training" "7/17/2019" "10:14" "right" 1 5258.298 1 "Post" "PO" "NonPred" "Old"
"nmTDvGRZx8JwbJ8saKJPKN36o" 12 "6poup" "Piglet_will_show_the_ant_to_the_fish" "left" "right" "training" "7/17/2019" "10:14" "left" 1 882.298000000001 1 "Post" "PO" "NonPred" "Old"
"nV30W6yfyKKXdgNghKVNBL5nw" 1 "11dop" "Marshall_will_pass_the_bee_the_gloves" "left" "right" "training" "7/18/2019" "10:25" "left" 1 16793.037 1 "Pre" "DO" "Pred" "Old"
"nV30W6yfyKKXdgNghKVNBL5nw" 2 "12dop" "Winnie_the_pooh_will_show_the_duck_the_frisbee" "right" "left" "training" "7/18/2019" "10:25" "right" 1 4611.037 1 "Pre" "DO" "Pred" "Old"
"nV30W6yfyKKXdgNghKVNBL5nw" 3 "4dop" "George_will_send_the_donkey_the_brush" "right" "left" "training" "7/18/2019" "10:25" "right" 1 3925.037 1 "Pre" "DO" "Pred" "Old"
"nV30W6yfyKKXdgNghKVNBL5nw" 4 "10dop" "Boots_will_send_the_caterpillar_the_flower" "left" "right" "training" "7/18/2019" "10:25" "left" 1 4188.037 1 "Pre" "DO" "Pred" "Old"
"nV30W6yfyKKXdgNghKVNBL5nw" 5 "3dop" "Rebecca_Rabbit_will_bring_the_chicken_the_pencil" "right" "left" "training" "7/18/2019" "10:25" "right" 1 1819.037 1 "Pre" "DO" "Pred" "Old"
"nV30W6yfyKKXdgNghKVNBL5nw" 6 "5dop" "The_girl_will_pass_the_sheep_the_dress" "left" "right" "training" "7/18/2019" "10:25" "left" 1 3213.037 1 "Pre" "DO" "Pred" "Old"
"nV30W6yfyKKXdgNghKVNBL5nw" 7 "8dop" "Chase_will_give_the_kitten_the_bisuit" "right" "left" "training" "7/18/2019" "10:25" "right" 1 4021.037 1 "Pre" "DO" "Pred" "Old"
"nV30W6yfyKKXdgNghKVNBL5nw" 8 "6dop" "Piglet_will_show_the_fish_the_plate" "left" "right" "training" "7/18/2019" "10:25" "left" 1 3675.037 1 "Pre" "DO" "Pred" "Old"
"nV30W6yfyKKXdgNghKVNBL5nw" 9 "1dop" "The_boy_will_throw_the_bear_the_cheese" "left" "right" "training" "7/18/2019" "10:25" "left" 1 7150.037 1 "Pre" "DO" "Pred" "Old"
"nV30W6yfyKKXdgNghKVNBL5nw" 10 "9dop" "Dora_the_explorer_will_bring_the_hippo_the_spoon" "right" "left" "training" "7/18/2019" "10:25" "right" 1 2455.037 1 "Pre" "DO" "Pred" "Old"
"nV30W6yfyKKXdgNghKVNBL5nw" 11 "7dop" "Bob_the_builder_will_throw_the_penguin_the_shoe" "left" "right" "training" "7/18/2019" "10:25" "left" 1 1979.037 1 "Pre" "DO" "Pred" "Old"
"nV30W6yfyKKXdgNghKVNBL5nw" 12 "2dop" "Tigger_will_give_the_zebra_the_bottle" "right" "left" "training" "7/18/2019" "10:25" "right" 1 1212.037 1 "Pre" "DO" "Pred" "Old"
"nyrtrbWVSBN3GyvPrgguNsxXp" 1 "7dop" "Bob_the_builder_will_throw_the_penguin_the_shoe" "right" "left" "training" "10/28/2019" "10:09" "right" 1 4633.99 1 "Pre" "DO" "Pred" "Old"
"nyrtrbWVSBN3GyvPrgguNsxXp" 2 "1dop" "The_boy_will_throw_the_bear_the_cheese" "left" "right" "training" "10/28/2019" "10:09" "left" 1 8269.99 1 "Pre" "DO" "Pred" "Old"
"nyrtrbWVSBN3GyvPrgguNsxXp" 3 "12dop" "Winnie_the_pooh_will_show_the_duck_the_frisbee" "left" "right" "training" "10/28/2019" "10:09" "left" 1 4912.99 1 "Pre" "DO" "Pred" "Old"
"nyrtrbWVSBN3GyvPrgguNsxXp" 4 "11dop" "Marshall_will_pass_the_bee_the_gloves" "left" "right" "training" "10/28/2019" "10:09" "left" 1 4977.99 1 "Pre" "DO" "Pred" "Old"
"nyrtrbWVSBN3GyvPrgguNsxXp" 5 "4dop" "George_will_send_the_donkey_the_brush" "right" "left" "training" "10/28/2019" "10:09" "right" 1 6939.99 1 "Pre" "DO" "Pred" "Old"
"nyrtrbWVSBN3GyvPrgguNsxXp" 6 "9dop" "Dora_the_explorer_will_bring_the_hippo_the_spoon" "right" "left" "training" "10/28/2019" "10:09" "right" 1 5218.99 1 "Pre" "DO" "Pred" "Old"
"nyrtrbWVSBN3GyvPrgguNsxXp" 7 "5dop" "The_girl_will_pass_the_sheep_the_dress" "right" "left" "training" "10/28/2019" "10:09" "right" 1 7166.99 1 "Pre" "DO" "Pred" "Old"
"nyrtrbWVSBN3GyvPrgguNsxXp" 8 "8dop" "Chase_will_give_the_kitten_the_bisuit" "left" "right" "training" "10/28/2019" "10:09" "left" 1 9277.99 1 "Pre" "DO" "Pred" "Old"
"nyrtrbWVSBN3GyvPrgguNsxXp" 9 "6dop" "Piglet_will_show_the_fish_the_plate" "right" "left" "training" "10/28/2019" "10:09" "right" 1 6003.99 2 "Pre" "DO" "Pred" "Old"
"nyrtrbWVSBN3GyvPrgguNsxXp" 10 "3dop" "Rebecca_Rabbit_will_bring_the_chicken_the_pencil" "left" "right" "training" "10/28/2019" "10:09" "left" 1 3619.99 2 "Pre" "DO" "Pred" "Old"
"nyrtrbWVSBN3GyvPrgguNsxXp" 11 "10dop" "Boots_will_send_the_caterpillar_the_flower" "right" "left" "training" "10/28/2019" "10:09" "right" 1 8556.99 1 "Pre" "DO" "Pred" "Old"
"nyrtrbWVSBN3GyvPrgguNsxXp" 12 "2dop" "Tigger_will_give_the_zebra_the_bottle" "left" "right" "training" "10/28/2019" "10:09" "left" 1 3462.99 1 "Pre" "DO" "Pred" "Old"
"oH2Bsr8tcjyzn3lkxEPy67eEg" 1 "9pop" "Dora_the_explorer_will_bring_the_spoon_to_the_hippo" "left" "right" "training" "4/16/2019" "10:56" "left" 1 2797.852 1 "Post" "PO" "Pred" "Old"
"oH2Bsr8tcjyzn3lkxEPy67eEg" 2 "4pop" "George_will_send_the_brush_to_the_donkey" "left" "right" "training" "4/16/2019" "10:56" "left" 1 1702.852 1 "Post" "PO" "Pred" "Old"
"oH2Bsr8tcjyzn3lkxEPy67eEg" 3 "6pop" "Piglet_will_show_the_plate_to_the_fish" "right" "left" "training" "4/16/2019" "10:56" "right" 1 1077.852 1 "Post" "PO" "Pred" "Old"
"oH2Bsr8tcjyzn3lkxEPy67eEg" 4 "2pop" "Tigger_will_give_the_bottle_to_the_zebra" "right" "left" "training" "4/16/2019" "10:56" "right" 1 1246.852 1 "Post" "PO" "Pred" "Old"
"oH2Bsr8tcjyzn3lkxEPy67eEg" 5 "1pop" "The_boy_will_throw_the_cheese_to_the_bear" "left" "right" "training" "4/16/2019" "10:56" "left" 1 1896.852 1 "Post" "PO" "Pred" "Old"
"oH2Bsr8tcjyzn3lkxEPy67eEg" 6 "12pop" "Winnie_the_pooh_will_show_the_frisbee_to_the_duck" "left" "right" "training" "4/16/2019" "10:56" "left" 1 1279.852 1 "Post" "PO" "Pred" "Old"
"oH2Bsr8tcjyzn3lkxEPy67eEg" 7 "5pop" "The_girl_will_pass_the_dress_to_the_sheep" "left" "right" "training" "4/16/2019" "10:56" "left" 1 686.852 1 "Post" "PO" "Pred" "Old"
"oH2Bsr8tcjyzn3lkxEPy67eEg" 8 "3pop" "Rebecca_Rabbit_will_bring_the_pencil_to_the_chicken" "left" "right" "training" "4/16/2019" "10:56" "left" 1 4529.852 1 "Post" "PO" "Pred" "Old"
"oH2Bsr8tcjyzn3lkxEPy67eEg" 9 "10pop" "Boots_will_send_the_flower_to_the_caterpillar" "right" "left" "training" "4/16/2019" "10:56" "right" 1 310.852 1 "Post" "PO" "Pred" "Old"
"oH2Bsr8tcjyzn3lkxEPy67eEg" 10 "7pop" "Bob_the_builder_will_throw_the_shoe_to_the_penguin" "right" "left" "training" "4/16/2019" "10:56" "right" 1 530.852 1 "Post" "PO" "Pred" "Old"
"oH2Bsr8tcjyzn3lkxEPy67eEg" 11 "8pop" "Chase_will_give_the_biscuit_to_the_kitten" "right" "left" "training" "4/16/2019" "10:56" "right" 1 697.852 1 "Post" "PO" "Pred" "Old"
"oH2Bsr8tcjyzn3lkxEPy67eEg" 12 "11pop" "Marshall_will_pass_the_gloves_to_the_bee" "right" "left" "training" "4/16/2019" "10:56" "right" 1 1231.852 1 "Post" "PO" "Pred" "Old"
"opzCkHcBNFh5YOnc1w0Csthm8" 1 "11pop" "Marshall_will_pass_the_gloves_to_the_bee" "right" "left" "training" "7/17/2019" "14:09" "right" 1 3159.535 1 "Post" "PO" "Pred" "Old"
"opzCkHcBNFh5YOnc1w0Csthm8" 2 "2pop" "Tigger_will_give_the_bottle_to_the_zebra" "right" "left" "training" "7/17/2019" "14:09" "right" 1 2263.535 1 "Post" "PO" "Pred" "Old"
"opzCkHcBNFh5YOnc1w0Csthm8" 3 "10pop" "Boots_will_send_the_flower_to_the_caterpillar" "left" "right" "training" "7/17/2019" "14:09" "left" 1 3408.535 1 "Post" "PO" "Pred" "Old"
"opzCkHcBNFh5YOnc1w0Csthm8" 4 "8pop" "Chase_will_give_the_biscuit_to_the_kitten" "left" "right" "training" "7/17/2019" "14:09" "left" 1 2828.535 1 "Post" "PO" "Pred" "Old"
"opzCkHcBNFh5YOnc1w0Csthm8" 5 "6pop" "Piglet_will_show_the_plate_to_the_fish" "right" "left" "training" "7/17/2019" "14:09" "right" 1 1819.535 1 "Post" "PO" "Pred" "Old"
"opzCkHcBNFh5YOnc1w0Csthm8" 6 "3pop" "Rebecca_Rabbit_will_bring_the_pencil_to_the_chicken" "left" "right" "training" "7/17/2019" "14:09" "left" 1 4772.535 1 "Post" "PO" "Pred" "Old"
"opzCkHcBNFh5YOnc1w0Csthm8" 7 "5pop" "The_girl_will_pass_the_dress_to_the_sheep" "left" "right" "training" "7/17/2019" "14:09" "left" 1 3388.535 1 "Post" "PO" "Pred" "Old"
"opzCkHcBNFh5YOnc1w0Csthm8" 8 "7pop" "Bob_the_builder_will_throw_the_shoe_to_the_penguin" "right" "left" "training" "7/17/2019" "14:09" "right" 1 4140.535 1 "Post" "PO" "Pred" "Old"
"opzCkHcBNFh5YOnc1w0Csthm8" 9 "9pop" "Dora_the_explorer_will_bring_the_spoon_to_the_hippo" "left" "right" "training" "7/17/2019" "14:09" "left" 1 3541.535 1 "Post" "PO" "Pred" "Old"
"opzCkHcBNFh5YOnc1w0Csthm8" 10 "4pop" "George_will_send_the_brush_to_the_donkey" "right" "left" "training" "7/17/2019" "14:09" "right" 1 1784.535 1 "Post" "PO" "Pred" "Old"
"opzCkHcBNFh5YOnc1w0Csthm8" 11 "12pop" "Winnie_the_pooh_will_show_the_frisbee_to_the_duck" "right" "left" "training" "7/17/2019" "14:09" "right" 1 3103.535 1 "Post" "PO" "Pred" "Old"
"opzCkHcBNFh5YOnc1w0Csthm8" 12 "1pop" "The_boy_will_throw_the_cheese_to_the_bear" "left" "right" "training" "7/17/2019" "14:09" "left" 1 3156.535 1 "Post" "PO" "Pred" "Old"
"OwZ5WLm5w1MukPIJdwW9D1t4f" 1 "9poup" "Dora_the_explorer_will_bring_the_cow_to_the_hippo" "left" "right" "training" "4/16/2019" "14:48" "left" 1 4879.756 1 "Pre" "PO" "NonPred" "Old"
"OwZ5WLm5w1MukPIJdwW9D1t4f" 2 "4poup" "George_will_send_the_fox_to_the_donkey" "right" "left" "training" "4/16/2019" "14:48" "right" 1 4581.756 1 "Pre" "PO" "NonPred" "Old"
"OwZ5WLm5w1MukPIJdwW9D1t4f" 3 "8poup" "Chase_will_give_the_deer_to_the_kitten" "right" "left" "training" "4/16/2019" "14:48" "right" 1 2427.756 1 "Pre" "PO" "NonPred" "Old"
"OwZ5WLm5w1MukPIJdwW9D1t4f" 4 "12poup" "Winnie_the_pooh_will_show_the_owl_to_the_duck" "right" "left" "training" "4/16/2019" "14:48" "right" 1 11720.756 1 "Pre" "PO" "NonPred" "Old"
"OwZ5WLm5w1MukPIJdwW9D1t4f" 5 "2poup" "Tigger_will_give_the_butterfly_to_the_zebra" "left" "right" "training" "4/16/2019" "14:48" "left" 1 9288.756 1 "Pre" "PO" "NonPred" "Old"
"OwZ5WLm5w1MukPIJdwW9D1t4f" 6 "10poup" "Boots_will_send_the_pig_to_the_caterpillar" "left" "right" "training" "4/16/2019" "14:48" "left" 1 9215.756 1 "Pre" "PO" "NonPred" "Old"
"OwZ5WLm5w1MukPIJdwW9D1t4f" 7 "1poup" "The_boy_will_throw_the_dinosaur_to_the_bear" "right" "left" "training" "4/16/2019" "14:48" "right" 1 2622.756 1 "Pre" "PO" "NonPred" "Old"
"OwZ5WLm5w1MukPIJdwW9D1t4f" 8 "7poup" "Bob_the_builder_will_throw_the_dog_to_the_penguin" "left" "right" "training" "4/16/2019" "14:48" "left" 1 6054.756 1 "Pre" "PO" "NonPred" "Old"
"OwZ5WLm5w1MukPIJdwW9D1t4f" 9 "3poup" "Rebecca_Rabbit_will_bring_the_frog_to_the_chicken" "left" "right" "training" "4/16/2019" "14:48" "left" 1 625.756 2 "Pre" "PO" "NonPred" "Old"
"OwZ5WLm5w1MukPIJdwW9D1t4f" 10 "5poup" "The_girl_will_pass_the_bird_to_the_sheep" "left" "right" "training" "4/16/2019" "14:48" "left" 1 13530.756 1 "Pre" "PO" "NonPred" "Old"
"OwZ5WLm5w1MukPIJdwW9D1t4f" 11 "11poup" "Marshall_will_pass_the_goat_to_the_bee" "right" "left" "training" "4/16/2019" "14:48" "right" 1 1396.756 1 "Pre" "PO" "NonPred" "Old"
"OwZ5WLm5w1MukPIJdwW9D1t4f" 12 "6poup" "Piglet_will_show_the_ant_to_the_fish" "right" "left" "training" "4/16/2019" "14:48" "left" 0 8491.756 1 "Pre" "PO" "NonPred" "Old"
"P1" 1 "5pop" "The_girl_will_pass_the_dress_to_the_sheep" "right" "left" "training" "4/15/2019" "10:01" "right" 1 2569.342 1 "Pre" "PO" "Pred" "Old"
"P1" 2 "10pop" "Boots_will_send_the_flower_to_the_caterpillar" "right" "left" "training" "4/15/2019" "10:01" "right" 1 4590.342 1 "Pre" "PO" "Pred" "Old"
"P1" 3 "2pop" "Tigger_will_give_the_bottle_to_the_zebra" "right" "left" "training" "4/15/2019" "10:01" "right" 1 1711.342 1 "Pre" "PO" "Pred" "Old"
"P1" 4 "1pop" "The_boy_will_throw_the_cheese_to_the_bear" "left" "right" "training" "4/15/2019" "10:01" "left" 1 4086.342 1 "Pre" "PO" "Pred" "Old"
"P1" 5 "3pop" "Rebecca_Rabbit_will_bring_the_pencil_to_the_chicken" "left" "right" "training" "4/15/2019" "10:01" "left" 1 3081.342 1 "Pre" "PO" "Pred" "Old"
"P1" 6 "4pop" "George_will_send_the_brush_to_the_donkey" "right" "left" "training" "4/15/2019" "10:01" "right" 1 4000.342 1 "Pre" "PO" "Pred" "Old"
"P1" 7 "6pop" "Piglet_will_show_the_plate_to_the_fish" "right" "left" "training" "4/15/2019" "10:01" "right" 1 1144.342 1 "Pre" "PO" "Pred" "Old"
"P1" 8 "11pop" "Marshall_will_pass_the_gloves_to_the_bee" "left" "right" "training" "4/15/2019" "10:01" "left" 1 1021.342 1 "Pre" "PO" "Pred" "Old"
"P1" 9 "8pop" "Chase_will_give_the_biscuit_to_the_kitten" "left" "right" "training" "4/15/2019" "10:01" "left" 1 357.342 1 "Pre" "PO" "Pred" "Old"
"P1" 10 "12pop" "Winnie_the_pooh_will_show_the_frisbee_to_the_duck" "right" "left" "training" "4/15/2019" "10:01" "right" 1 1802.342 1 "Pre" "PO" "Pred" "Old"
"P1" 11 "7pop" "Bob_the_builder_will_throw_the_shoe_to_the_penguin" "left" "right" "training" "4/15/2019" "10:01" "left" 1 1109.342 1 "Pre" "PO" "Pred" "Old"
"P1" 12 "9pop" "Dora_the_explorer_will_bring_the_spoon_to_the_hippo" "left" "right" "training" "4/15/2019" "10:01" "left" 1 1582.342 1 "Pre" "PO" "Pred" "Old"
"pgRZJhdM1F7epzQC4m5GoS5kR" 1 "11dop" "Marshall_will_pass_the_bee_the_gloves" "left" "right" "training" "6/17/2019" "10:36" "left" 1 8644.037 1 "Post" "DO" "Pred" "Old"
"pgRZJhdM1F7epzQC4m5GoS5kR" 2 "7dop" "Bob_the_builder_will_throw_the_penguin_the_shoe" "right" "left" "training" "6/17/2019" "10:36" "right" 1 4362.037 1 "Post" "DO" "Pred" "Old"
"pgRZJhdM1F7epzQC4m5GoS5kR" 3 "1dop" "The_boy_will_throw_the_bear_the_cheese" "left" "right" "training" "6/17/2019" "10:36" "left" 1 3587.037 1 "Post" "DO" "Pred" "Old"
"pgRZJhdM1F7epzQC4m5GoS5kR" 4 "9dop" "Dora_the_explorer_will_bring_the_hippo_the_spoon" "right" "left" "training" "6/17/2019" "10:36" "right" 1 4882.037 1 "Post" "DO" "Pred" "Old"
"pgRZJhdM1F7epzQC4m5GoS5kR" 5 "12dop" "Winnie_the_pooh_will_show_the_duck_the_frisbee" "right" "left" "training" "6/17/2019" "10:36" "right" 1 3228.037 1 "Post" "DO" "Pred" "Old"
"pgRZJhdM1F7epzQC4m5GoS5kR" 6 "8dop" "Chase_will_give_the_kitten_the_bisuit" "right" "left" "training" "6/17/2019" "10:36" "right" 1 3754.037 1 "Post" "DO" "Pred" "Old"
"pgRZJhdM1F7epzQC4m5GoS5kR" 7 "3dop" "Rebecca_Rabbit_will_bring_the_chicken_the_pencil" "left" "right" "training" "6/17/2019" "10:36" "left" 1 1692.037 1 "Post" "DO" "Pred" "Old"
"pgRZJhdM1F7epzQC4m5GoS5kR" 8 "10dop" "Boots_will_send_the_caterpillar_the_flower" "left" "right" "training" "6/17/2019" "10:36" "left" 1 1390.037 1 "Post" "DO" "Pred" "Old"
"pgRZJhdM1F7epzQC4m5GoS5kR" 9 "6dop" "Piglet_will_show_the_fish_the_plate" "left" "right" "training" "6/17/2019" "10:36" "left" 1 2361.037 1 "Post" "DO" "Pred" "Old"
"pgRZJhdM1F7epzQC4m5GoS5kR" 10 "2dop" "Tigger_will_give_the_zebra_the_bottle" "left" "right" "training" "6/17/2019" "10:36" "left" 1 1916.037 1 "Post" "DO" "Pred" "Old"
"pgRZJhdM1F7epzQC4m5GoS5kR" 11 "4dop" "George_will_send_the_donkey_the_brush" "right" "left" "training" "6/17/2019" "10:36" "right" 1 2626.037 1 "Post" "DO" "Pred" "Old"
"pgRZJhdM1F7epzQC4m5GoS5kR" 12 "5dop" "The_girl_will_pass_the_sheep_the_dress" "right" "left" "training" "6/17/2019" "10:36" "right" 1 2282.037 1 "Post" "DO" "Pred" "Old"
"phx1ko4pdtNEpFUlLV28RtjXh" 1 "6pop" "Piglet_will_show_the_plate_to_the_fish" "right" "left" "training" "7/2/2019" "13:30" "right" 1 13741.1857 1 "Pre" "PO" "Pred" "Old"
"phx1ko4pdtNEpFUlLV28RtjXh" 2 "5pop" "The_girl_will_pass_the_dress_to_the_sheep" "left" "right" "training" "7/2/2019" "13:30" "left" 1 4827.1857 1 "Pre" "PO" "Pred" "Old"
"phx1ko4pdtNEpFUlLV28RtjXh" 3 "12pop" "Winnie_the_pooh_will_show_the_frisbee_to_the_duck" "left" "right" "training" "7/2/2019" "13:30" "left" 1 4576.1857 1 "Pre" "PO" "Pred" "Old"
"phx1ko4pdtNEpFUlLV28RtjXh" 4 "7pop" "Bob_the_builder_will_throw_the_shoe_to_the_penguin" "right" "left" "training" "7/2/2019" "13:30" "right" 1 3128.1857 1 "Pre" "PO" "Pred" "Old"
"phx1ko4pdtNEpFUlLV28RtjXh" 5 "10pop" "Boots_will_send_the_flower_to_the_caterpillar" "right" "left" "training" "7/2/2019" "13:30" "right" 1 3254.1857 1 "Pre" "PO" "Pred" "Old"
"phx1ko4pdtNEpFUlLV28RtjXh" 6 "3pop" "Rebecca_Rabbit_will_bring_the_pencil_to_the_chicken" "left" "right" "training" "7/2/2019" "13:30" "left" 1 9449.1857 1 "Pre" "PO" "Pred" "Old"
"phx1ko4pdtNEpFUlLV28RtjXh" 7 "4pop" "George_will_send_the_brush_to_the_donkey" "right" "left" "training" "7/2/2019" "13:30" "right" 1 4493.1857 1 "Pre" "PO" "Pred" "Old"
"phx1ko4pdtNEpFUlLV28RtjXh" 8 "2pop" "Tigger_will_give_the_bottle_to_the_zebra" "left" "right" "training" "7/2/2019" "13:30" "left" 1 7029.1857 1 "Pre" "PO" "Pred" "Old"
"phx1ko4pdtNEpFUlLV28RtjXh" 9 "9pop" "Dora_the_explorer_will_bring_the_spoon_to_the_hippo" "right" "left" "training" "7/2/2019" "13:30" "right" 1 7859.1857 1 "Pre" "PO" "Pred" "Old"
"phx1ko4pdtNEpFUlLV28RtjXh" 10 "1pop" "The_boy_will_throw_the_cheese_to_the_bear" "right" "left" "training" "7/2/2019" "13:30" "right" 1 5026.1857 1 "Pre" "PO" "Pred" "Old"
"phx1ko4pdtNEpFUlLV28RtjXh" 11 "11pop" "Marshall_will_pass_the_gloves_to_the_bee" "left" "right" "training" "7/2/2019" "13:30" "left" 1 4373.1857 1 "Pre" "PO" "Pred" "Old"
"phx1ko4pdtNEpFUlLV28RtjXh" 12 "8pop" "Chase_will_give_the_biscuit_to_the_kitten" "left" "right" "training" "7/2/2019" "13:30" "left" 1 3641.1857 1 "Pre" "PO" "Pred" "Old"
"PnCnWQzKPxQeSD1QGec5OAPEt" 1 "1poup" "The_boy_will_throw_the_dinosaur_to_the_bear" "left" "right" "training" "6/17/2019" "09:53" "left" 1 12262 1 "Pre" "PO" "NonPred" "Old"
"PnCnWQzKPxQeSD1QGec5OAPEt" 2 "7poup" "Bob_the_builder_will_throw_the_dog_to_the_penguin" "right" "left" "training" "6/17/2019" "09:53" "right" 1 5732 1 "Pre" "PO" "NonPred" "Old"
"PnCnWQzKPxQeSD1QGec5OAPEt" 3 "12poup" "Winnie_the_pooh_will_show_the_owl_to_the_duck" "left" "right" "training" "6/17/2019" "09:53" "left" 1 7659 1 "Pre" "PO" "NonPred" "Old"
"PnCnWQzKPxQeSD1QGec5OAPEt" 4 "9poup" "Dora_the_explorer_will_bring_the_cow_to_the_hippo" "right" "left" "training" "6/17/2019" "09:53" "right" 1 2902 1 "Pre" "PO" "NonPred" "Old"
"PnCnWQzKPxQeSD1QGec5OAPEt" 5 "4poup" "George_will_send_the_fox_to_the_donkey" "left" "right" "training" "6/17/2019" "09:53" "left" 1 3089 1 "Pre" "PO" "NonPred" "Old"
"PnCnWQzKPxQeSD1QGec5OAPEt" 6 "2poup" "Tigger_will_give_the_butterfly_to_the_zebra" "right" "left" "training" "6/17/2019" "09:53" "right" 1 5434 1 "Pre" "PO" "NonPred" "Old"
"PnCnWQzKPxQeSD1QGec5OAPEt" 7 "6poup" "Piglet_will_show_the_ant_to_the_fish" "right" "left" "training" "6/17/2019" "09:53" "right" 1 1689 1 "Pre" "PO" "NonPred" "Old"
"PnCnWQzKPxQeSD1QGec5OAPEt" 8 "8poup" "Chase_will_give_the_deer_to_the_kitten" "left" "right" "training" "6/17/2019" "09:53" "left" 1 2184 1 "Pre" "PO" "NonPred" "Old"
