"subject_id" "trial_number" "trial_id" "target_sentence" "question" "target_side" "other_side" "trial_type" "date_stamp" "time_stamp" "side_chosen" "accuracy" "rt" "play_counter" "date_of_birth" "native_lang" "other_langs" "dev_info" "gender" "order" "sentence_type" "animacy"
"17yCXAcVORBqpufI4fbQdvBdb" 1 "4fillerpost2" "The_prince_will_move_the_blanket_to_the_sofa" "Can_you_move_the_blanket_to_the_sofa?" "right" "left" "posttest_filler" "7/18/2019" "09:59" "right" 1 1201.135 1 "07/05/15" "English" NA NA "male" "Post" "DO" "NonPred"
"17yCXAcVORBqpufI4fbQdvBdb" 2 "3fillerpost2" "Dora_the_explorer_will_put_the_food_in_the_basket" "Can_you_put_the_food_in_the_basket?" "left" "right" "posttest_filler" "7/18/2019" "09:59" "left" 1 4288.135 1 "07/05/15" "English" NA NA "male" "Post" "DO" "NonPred"
"17yCXAcVORBqpufI4fbQdvBdb" 3 "3Pre2" "Peppa_Pig_will_send_the_hamster_a_toy" "Can_you_send_the_hamster_the_toy?" "right" "left" "pretest" "7/18/2019" "09:59" "right" 1 2010.135 1 "07/05/15" "English" NA NA "male" "Post" "DO" "NonPred"
"17yCXAcVORBqpufI4fbQdvBdb" 4 "1FillerPre2" "Peppa_pig_will_bounce_the_ball_with_the_bat" "Can_you_bounce_the_ball_with_the_bat?" "right" "left" "pretest_filler" "7/18/2019" "09:59" "left" 0 18560.135 1 "07/05/15" "English" NA NA "male" "Post" "DO" "NonPred"
"17yCXAcVORBqpufI4fbQdvBdb" 5 "1Pre2" "The_boy_will_bring_the_giraffe_a_cake" "Can_you_bring_the_giraffe_the_cake?" "left" "right" "pretest" "7/18/2019" "09:59" "left" 1 905.135 1 "07/05/15" "English" NA NA "male" "Post" "DO" "NonPred"
"17yCXAcVORBqpufI4fbQdvBdb" 6 "5Pre2" "The_queen_will_send_the_monkey_a_horse" "Can_you_send_the_monkey_the_horse?" "right" "left" "pretest" "7/18/2019" "09:59" "right" 1 2024.135 1 "07/05/15" "English" NA NA "male" "Post" "DO" "NonPred"
"17yCXAcVORBqpufI4fbQdvBdb" 7 "4Pre2" "The_king_will_throw_the_turtle_a_squirrel" "Can_you_throw_the_turtle_the_squirrel?" "left" "right" "pretest" "7/18/2019" "09:59" "right" 0 5778.135 1 "07/05/15" "English" NA NA "male" "Post" "DO" "NonPred"
"17yCXAcVORBqpufI4fbQdvBdb" 8 "2Pre2" "The_girl_will_throw_the_elephant_a_clock" "Can_you_throw_the_elephant_the_clock?" "left" "right" "pretest" "7/18/2019" "09:59" "left" 1 2563.135 1 "07/05/15" "English" NA NA "male" "Post" "DO" "NonPred"
"17yCXAcVORBqpufI4fbQdvBdb" 9 "4FillerPre2" "The_king_will_poke_the_jelly_with_the_fork" "Can_you_poke_the_jelly_with_the_fork?" "right" "left" "pretest_filler" "7/18/2019" "09:59" "left" 0 5607.135 1 "07/05/15" "English" NA NA "male" "Post" "DO" "NonPred"
"17yCXAcVORBqpufI4fbQdvBdb" 10 "6Pre2" "Emily_elephant_will_bring_the_mouse_a_rabbit" "Can_you_bring_the_mouse_the_rabbit?" "left" "right" "pretest" "7/18/2019" "09:59" "left" 1 1125.135 1 "07/05/15" "English" NA NA "male" "Post" "DO" "NonPred"
"1ebbSRddusMUfuZicVGxXhkbI" 1 "4fillerpost2" "The_prince_will_move_the_blanket_to_the_sofa" "Can_you_move_the_blanket_to_the_sofa?" "right" "left" "posttest_filler" "7/1/2019" "10:43" "right" 1 6273.135 1 "20/02/15" "English" NA NA "male" "Pre" "PO" "NonPred"
"1ebbSRddusMUfuZicVGxXhkbI" 2 "3fillerpost2" "Dora_the_explorer_will_put_the_food_in_the_basket" "Can_you_put_the_food_in_the_basket?" "left" "right" "posttest_filler" "7/1/2019" "10:43" "left" 1 32013.135 1 "20/02/15" "English" NA NA "male" "Pre" "PO" "NonPred"
"1ebbSRddusMUfuZicVGxXhkbI" 3 "2post2" "The_girl_will_bring_the_horse_an_ice_cream" "Can_you_bring_the_horse_the_ice_cream?" "left" "right" "posttest" "7/1/2019" "10:43" "left" 1 7682.135 1 "20/02/15" "English" NA NA "male" "Pre" "PO" "NonPred"
"1ebbSRddusMUfuZicVGxXhkbI" 4 "2fillerpost2" "Boots_will_clean_the_chair_with_the_sponge" "Can_you_clean_the_chair_with_the_sponge?" "left" "right" "posttest_filler" "7/1/2019" "10:43" "left" 1 6093.135 1 "20/02/15" "English" NA NA "male" "Pre" "PO" "NonPred"
"1ebbSRddusMUfuZicVGxXhkbI" 5 "4Post2" "The_princess_will_send_the_lion_a_crocodile" "Can_you_send_the_lion_the_crocodile?" "right" "left" "posttest" "7/1/2019" "10:43" "left" 0 3926.135 1 "20/02/15" "English" NA NA "male" "Pre" "PO" "NonPred"
"1ebbSRddusMUfuZicVGxXhkbI" 6 "5post2" "The_prince_will_bring_the_turtle_a_cat" "Can_you_bring_the_turtle_the_cat?" "right" "left" "posttest" "7/1/2019" "10:43" "left" 0 2953.135 1 "20/02/15" "English" NA NA "male" "Pre" "PO" "NonPred"
"1ebbSRddusMUfuZicVGxXhkbI" 7 "1Post2" "The_boy_will_send_the_tiger_a_present" "Can_you_send_the_tiger_the_present?" "left" "right" "posttest" "7/1/2019" "10:43" "left" 1 11290.135 1 "20/02/15" "English" NA NA "male" "Pre" "PO" "NonPred"
"1ebbSRddusMUfuZicVGxXhkbI" 8 "6post2" "Dora_the_explorer_will_throw_the_puppy_a_hamster" "Can_you_throw_puppy_the_hamster?" "right" "left" "posttest" "7/1/2019" "10:43" "left" 0 1961.135 1 "20/02/15" "English" NA NA "male" "Pre" "PO" "NonPred"
"1ebbSRddusMUfuZicVGxXhkbI" 9 "1fillerpost2" "The_princess_will_tickle_the_teddy_bear_with_the_feather" "Can_you_tickle_the_teddy_bear_with_the_feather?" "left" "right" "posttest_filler" "7/1/2019" "10:43" "left" 1 5875.135 1 "20/02/15" "English" NA NA "male" "Pre" "PO" "NonPred"
"1ebbSRddusMUfuZicVGxXhkbI" 10 "3post2" "Boots_will_throw_the_giraffe_a_balloon" "Can_you_throw_the_giraffe_the_balloon?" "right" "left" "posttest" "7/1/2019" "10:43" "left" 0 2835.135 1 "20/02/15" "English" NA NA "male" "Pre" "PO" "NonPred"
"1k3P0gDo6S69m8yf4ofLTpSPt" 1 "4fillerpost2" "The_prince_will_move_the_blanket_to_the_sofa" "Can_you_move_the_blanket_to_the_sofa?" "right" "left" "posttest_filler" "4/18/2019" "10:56" "right" 1 2079.135 1 "03/11/2014" "English" NA NA "female" "Post" "DO" "NonPred"
"1k3P0gDo6S69m8yf4ofLTpSPt" 2 "3fillerpost2" "Dora_the_explorer_will_put_the_food_in_the_basket" "Can_you_put_the_food_in_the_basket?" "left" "right" "posttest_filler" "4/18/2019" "10:56" "left" 1 5224.135 1 "03/11/2014" "English" NA NA "female" "Post" "DO" "NonPred"
"1k3P0gDo6S69m8yf4ofLTpSPt" 3 "4Pre2" "The_king_will_throw_the_turtle_a_squirrel" "Can_you_throw_the_turtle_the_squirrel?" "left" "right" "pretest" "4/18/2019" "10:56" "left" 1 2772.135 1 "03/11/2014" "English" NA NA "female" "Post" "DO" "NonPred"
"1k3P0gDo6S69m8yf4ofLTpSPt" 4 "2Pre2" "The_girl_will_throw_the_elephant_a_clock" "Can_you_throw_the_elephant_the_clock?" "right" "left" "pretest" "4/18/2019" "10:56" "left" 0 6308.135 1 "03/11/2014" "English" NA NA "female" "Post" "DO" "NonPred"
"1k3P0gDo6S69m8yf4ofLTpSPt" 5 "6Pre2" "Emily_elephant_will_bring_the_mouse_a_rabbit" "Can_you_bring_the_mouse_the_rabbit?" "right" "left" "pretest" "4/18/2019" "10:56" "left" 0 1096.135 1 "03/11/2014" "English" NA NA "female" "Post" "DO" "NonPred"
"1k3P0gDo6S69m8yf4ofLTpSPt" 6 "3Pre2" "Peppa_Pig_will_send_the_hamster_a_toy" "Can_you_send_the_hamster_the_toy?" "right" "left" "pretest" "4/18/2019" "10:56" "left" 0 2643.135 1 "03/11/2014" "English" NA NA "female" "Post" "DO" "NonPred"
"1k3P0gDo6S69m8yf4ofLTpSPt" 7 "1Pre2" "The_boy_will_bring_the_giraffe_a_cake" "Can_you_bring_the_giraffe_the_cake?" "right" "left" "pretest" "4/18/2019" "10:56" "right" 1 2496.135 1 "03/11/2014" "English" NA NA "female" "Post" "DO" "NonPred"
"1k3P0gDo6S69m8yf4ofLTpSPt" 8 "1FillerPre2" "Peppa_pig_will_bounce_the_ball_with_the_bat" "Can_you_bounce_the_ball_with_the_bat?" "left" "right" "pretest_filler" "4/18/2019" "10:56" "right" 0 2469.135 1 "03/11/2014" "English" NA NA "female" "Post" "DO" "NonPred"
"1k3P0gDo6S69m8yf4ofLTpSPt" 9 "4FillerPre2" "The_king_will_poke_the_jelly_with_the_fork" "Can_you_poke_the_jelly_with_the_fork?" "left" "right" "pretest_filler" "4/18/2019" "10:56" "left" 1 2606.135 1 "03/11/2014" "English" NA NA "female" "Post" "DO" "NonPred"
"1k3P0gDo6S69m8yf4ofLTpSPt" 10 "5Pre2" "The_queen_will_send_the_monkey_a_horse" "Can_you_send_the_monkey_the_horse?" "left" "right" "pretest" "4/18/2019" "10:56" "right" 0 2184.135 1 "03/11/2014" "English" NA NA "female" "Post" "DO" "NonPred"
"1lnxkkBkcSSP61ZyjAlwc7ap7" 1 "4fillerpost2" "The_prince_will_move_the_blanket_to_the_sofa" "Can_you_move_the_blanket_to_the_sofa?" "right" "left" "posttest_filler" "7/18/2019" "10:50" "right" 1 3235.135 1 "20/02/2015" "English" NA NA "male" "Post" "DO" "NonPred"
"1lnxkkBkcSSP61ZyjAlwc7ap7" 2 "3fillerpost2" "Dora_the_explorer_will_put_the_food_in_the_basket" "Can_you_put_the_food_in_the_basket?" "left" "right" "posttest_filler" "7/18/2019" "10:50" "left" 1 1707.135 1 "20/02/2015" "English" NA NA "male" "Post" "DO" "NonPred"
"1lnxkkBkcSSP61ZyjAlwc7ap7" 3 "5Pre2" "The_queen_will_send_the_monkey_a_horse" "Can_you_send_the_monkey_the_horse?" "right" "left" "pretest" "7/18/2019" "10:50" "left" 0 1763.135 1 "20/02/2015" "English" NA NA "male" "Post" "DO" "NonPred"
"1lnxkkBkcSSP61ZyjAlwc7ap7" 4 "3Pre2" "Peppa_Pig_will_send_the_hamster_a_toy" "Can_you_send_the_hamster_the_toy?" "left" "right" "pretest" "7/18/2019" "10:50" "right" 0 1240.135 1 "20/02/2015" "English" NA NA "male" "Post" "DO" "NonPred"
"1lnxkkBkcSSP61ZyjAlwc7ap7" 5 "4Pre2" "The_king_will_throw_the_turtle_a_squirrel" "Can_you_throw_the_turtle_the_squirrel?" "left" "right" "pretest" "7/18/2019" "10:50" "right" 0 1000.135 1 "20/02/2015" "English" NA NA "male" "Post" "DO" "NonPred"
"1lnxkkBkcSSP61ZyjAlwc7ap7" 6 "4FillerPre2" "The_king_will_poke_the_jelly_with_the_fork" "Can_you_poke_the_jelly_with_the_fork?" "right" "left" "pretest_filler" "7/18/2019" "10:50" "right" 1 1144.135 1 "20/02/2015" "English" NA NA "male" "Post" "DO" "NonPred"
"1lnxkkBkcSSP61ZyjAlwc7ap7" 7 "1FillerPre2" "Peppa_pig_will_bounce_the_ball_with_the_bat" "Can_you_bounce_the_ball_with_the_bat?" "right" "left" "pretest_filler" "7/18/2019" "10:50" "right" 1 1787.135 1 "20/02/2015" "English" NA NA "male" "Post" "DO" "NonPred"
"1lnxkkBkcSSP61ZyjAlwc7ap7" 8 "2Pre2" "The_girl_will_throw_the_elephant_a_clock" "Can_you_throw_the_elephant_the_clock?" "right" "left" "pretest" "7/18/2019" "10:50" "right" 1 892.135 1 "20/02/2015" "English" NA NA "male" "Post" "DO" "NonPred"
"1lnxkkBkcSSP61ZyjAlwc7ap7" 9 "6Pre2" "Emily_elephant_will_bring_the_mouse_a_rabbit" "Can_you_bring_the_mouse_the_rabbit?" "left" "right" "pretest" "7/18/2019" "10:50" "right" 0 1711.135 1 "20/02/2015" "English" NA NA "male" "Post" "DO" "NonPred"
"1lnxkkBkcSSP61ZyjAlwc7ap7" 10 "1Pre2" "The_boy_will_bring_the_giraffe_a_cake" "Can_you_bring_the_giraffe_the_cake?" "left" "right" "pretest" "7/18/2019" "10:50" "right" 0 2485.135 1 "20/02/2015" "English" NA NA "male" "Post" "DO" "NonPred"
"2GHibkOORxf1BEG7fHceuUNve" 1 "4fillerpost2" "The_prince_will_move_the_blanket_to_the_sofa" "Can_you_move_the_blanket_to_the_sofa?" "right" "left" "posttest_filler" "06/05/2019" "14:19" "right" 1 2413.135 1 "10/01/2015" "English" NA NA "female" "Post" "DO" "Pred"
"2GHibkOORxf1BEG7fHceuUNve" 2 "3fillerpost2" "Dora_the_explorer_will_put_the_food_in_the_basket" "Can_you_put_the_food_in_the_basket?" "left" "right" "posttest_filler" "06/05/2019" "14:19" "left" 1 2073.135 1 "10/01/2015" "English" NA NA "female" "Post" "DO" "Pred"
"2GHibkOORxf1BEG7fHceuUNve" 3 "5Pre2" "The_queen_will_send_the_monkey_a_horse" "Can_you_send_the_monkey_the_horse?" "right" "left" "pretest" "06/05/2019" "14:19" "right" 1 2379.135 1 "10/01/2015" "English" NA NA "female" "Post" "DO" "Pred"
"2GHibkOORxf1BEG7fHceuUNve" 4 "1Pre2" "The_boy_will_bring_the_giraffe_a_cake" "Can_you_bring_the_giraffe_the_cake?" "left" "right" "pretest" "06/05/2019" "14:19" "left" 1 947.135 1 "10/01/2015" "English" NA NA "female" "Post" "DO" "Pred"
"2GHibkOORxf1BEG7fHceuUNve" 5 "1FillerPre2" "Peppa_pig_will_bounce_the_ball_with_the_bat" "Can_you_bounce_the_ball_with_the_bat?" "left" "right" "pretest_filler" "06/05/2019" "14:19" "left" 1 1010.135 1 "10/01/2015" "English" NA NA "female" "Post" "DO" "Pred"
"2GHibkOORxf1BEG7fHceuUNve" 6 "3Pre2" "Peppa_Pig_will_send_the_hamster_a_toy" "Can_you_send_the_hamster_the_toy?" "left" "right" "pretest" "06/05/2019" "14:19" "right" 0 2737.135 1 "10/01/2015" "English" NA NA "female" "Post" "DO" "Pred"
"2GHibkOORxf1BEG7fHceuUNve" 7 "2Pre2" "The_girl_will_throw_the_elephant_a_clock" "Can_you_throw_the_elephant_the_clock?" "left" "right" "pretest" "06/05/2019" "14:19" "left" 1 1553.135 1 "10/01/2015" "English" NA NA "female" "Post" "DO" "Pred"
"2GHibkOORxf1BEG7fHceuUNve" 8 "4Pre2" "The_king_will_throw_the_turtle_a_squirrel" "Can_you_throw_the_turtle_the_squirrel?" "right" "left" "pretest" "06/05/2019" "14:19" "right" 1 2628.135 1 "10/01/2015" "English" NA NA "female" "Post" "DO" "Pred"
"2GHibkOORxf1BEG7fHceuUNve" 9 "4FillerPre2" "The_king_will_poke_the_jelly_with_the_fork" "Can_you_poke_the_jelly_with_the_fork?" "right" "left" "pretest_filler" "06/05/2019" "14:19" "left" 0 1723.135 1 "10/01/2015" "English" NA NA "female" "Post" "DO" "Pred"
"2GHibkOORxf1BEG7fHceuUNve" 10 "6Pre2" "Emily_elephant_will_bring_the_mouse_a_rabbit" "Can_you_bring_the_mouse_the_rabbit?" "right" "left" "pretest" "06/05/2019" "14:19" "left" 0 3157.135 1 "10/01/2015" "English" NA NA "female" "Post" "DO" "Pred"
"2hYJmUF5jJEGGI7LxAbvsImqO" 1 "4fillerpost2" "The_prince_will_move_the_blanket_to_the_sofa" "Can_you_move_the_blanket_to_the_sofa?" "right" "left" "posttest_filler" "6/28/2019" "10:10" "right" 1 2142.135 1 "31/01/2015" "English" NA NA "male" "Post" "PO" "NonPred"
"2hYJmUF5jJEGGI7LxAbvsImqO" 2 "3fillerpost2" "Dora_the_explorer_will_put_the_food_in_the_basket" "Can_you_put_the_food_in_the_basket?" "left" "right" "posttest_filler" "6/28/2019" "10:10" "left" 1 2711.135 1 "31/01/2015" "English" NA NA "male" "Post" "PO" "NonPred"
"2hYJmUF5jJEGGI7LxAbvsImqO" 3 "3Pre2" "Peppa_Pig_will_send_the_hamster_a_toy" "Can_you_send_the_hamster_the_toy?" "right" "left" "pretest" "6/28/2019" "10:10" "right" 1 3590.135 1 "31/01/2015" "English" NA NA "male" "Post" "PO" "NonPred"
"2hYJmUF5jJEGGI7LxAbvsImqO" 4 "1Pre2" "The_boy_will_bring_the_giraffe_a_cake" "Can_you_bring_the_giraffe_the_cake?" "right" "left" "pretest" "6/28/2019" "10:10" "right" 1 3109.135 1 "31/01/2015" "English" NA NA "male" "Post" "PO" "NonPred"
"2hYJmUF5jJEGGI7LxAbvsImqO" 5 "5Pre2" "The_queen_will_send_the_monkey_a_horse" "Can_you_send_the_monkey_the_horse?" "right" "left" "pretest" "6/28/2019" "10:10" "right" 1 2313.135 1 "31/01/2015" "English" NA NA "male" "Post" "PO" "NonPred"
"2hYJmUF5jJEGGI7LxAbvsImqO" 6 "6Pre2" "Emily_elephant_will_bring_the_mouse_a_rabbit" "Can_you_bring_the_mouse_the_rabbit?" "left" "right" "pretest" "6/28/2019" "10:10" "right" 0 3498.135 1 "31/01/2015" "English" NA NA "male" "Post" "PO" "NonPred"
"2hYJmUF5jJEGGI7LxAbvsImqO" 7 "1FillerPre2" "Peppa_pig_will_bounce_the_ball_with_the_bat" "Can_you_bounce_the_ball_with_the_bat?" "left" "right" "pretest_filler" "6/28/2019" "10:10" "left" 1 2557.135 1 "31/01/2015" "English" NA NA "male" "Post" "PO" "NonPred"
"2hYJmUF5jJEGGI7LxAbvsImqO" 8 "4FillerPre2" "The_king_will_poke_the_jelly_with_the_fork" "Can_you_poke_the_jelly_with_the_fork?" "left" "right" "pretest_filler" "6/28/2019" "10:10" "left" 1 6392.135 1 "31/01/2015" "English" NA NA "male" "Post" "PO" "NonPred"
"2hYJmUF5jJEGGI7LxAbvsImqO" 9 "2Pre2" "The_girl_will_throw_the_elephant_a_clock" "Can_you_throw_the_elephant_the_clock?" "right" "left" "pretest" "6/28/2019" "10:10" "right" 1 4182.135 1 "31/01/2015" "English" NA NA "male" "Post" "PO" "NonPred"
"2hYJmUF5jJEGGI7LxAbvsImqO" 10 "4Pre2" "The_king_will_throw_the_turtle_a_squirrel" "Can_you_throw_the_turtle_the_squirrel?" "left" "right" "pretest" "6/28/2019" "10:10" "right" 0 7656.135 1 "31/01/2015" "English" NA NA "male" "Post" "PO" "NonPred"
"498wbE6Ds1TB31uO9iPg2FSGC" 1 "4fillerpost2" "The_prince_will_move_the_blanket_to_the_sofa" "Can_you_move_the_blanket_to_the_sofa?" "right" "left" "posttest_filler" "6/17/2019" "11:19" "right" 1 1759.135 1 "10/05/2015" "English" "Welsh" NA "female" "Pre" "PO" "Pred"
"498wbE6Ds1TB31uO9iPg2FSGC" 2 "3fillerpost2" "Dora_the_explorer_will_put_the_food_in_the_basket" "Can_you_put_the_food_in_the_basket?" "left" "right" "posttest_filler" "6/17/2019" "11:19" "left" 1 2175.135 1 "10/05/2015" "English" "Welsh" NA "female" "Pre" "PO" "Pred"
"498wbE6Ds1TB31uO9iPg2FSGC" 3 "2post2" "The_girl_will_bring_the_horse_an_ice_cream" "Can_you_bring_the_horse_the_ice_cream?" "left" "right" "posttest" "6/17/2019" "11:19" "left" 1 3740.135 1 "10/05/2015" "English" "Welsh" NA "female" "Pre" "PO" "Pred"
"498wbE6Ds1TB31uO9iPg2FSGC" 4 "3post2" "Boots_will_throw_the_giraffe_a_balloon" "Can_you_throw_the_giraffe_the_balloon?" "left" "right" "posttest" "6/17/2019" "11:19" "right" 0 2073.135 1 "10/05/2015" "English" "Welsh" NA "female" "Pre" "PO" "Pred"
"498wbE6Ds1TB31uO9iPg2FSGC" 5 "5post2" "The_prince_will_bring_the_turtle_a_cat" "Can_you_bring_the_turtle_the_cat?" "right" "left" "posttest" "6/17/2019" "11:19" "left" 0 935.135 1 "10/05/2015" "English" "Welsh" NA "female" "Pre" "PO" "Pred"
"498wbE6Ds1TB31uO9iPg2FSGC" 6 "4Post2" "The_princess_will_send_the_lion_a_crocodile" "Can_you_send_the_lion_the_crocodile?" "right" "left" "posttest" "6/17/2019" "11:19" "right" 1 2434.135 1 "10/05/2015" "English" "Welsh" NA "female" "Pre" "PO" "Pred"
"498wbE6Ds1TB31uO9iPg2FSGC" 7 "2fillerpost2" "Boots_will_clean_the_chair_with_the_sponge" "Can_you_clean_the_chair_with_the_sponge?" "left" "right" "posttest_filler" "6/17/2019" "11:19" "left" 1 2921.135 1 "10/05/2015" "English" "Welsh" NA "female" "Pre" "PO" "Pred"
"498wbE6Ds1TB31uO9iPg2FSGC" 8 "1fillerpost2" "The_princess_will_tickle_the_teddy_bear_with_the_feather" "Can_you_tickle_the_teddy_bear_with_the_feather?" "left" "right" "posttest_filler" "6/17/2019" "11:19" "left" 1 3409.135 1 "10/05/2015" "English" "Welsh" NA "female" "Pre" "PO" "Pred"
"498wbE6Ds1TB31uO9iPg2FSGC" 9 "1Post2" "The_boy_will_send_the_tiger_a_present" "Can_you_send_the_tiger_the_present?" "right" "left" "posttest" "6/17/2019" "11:19" "left" 0 1172.135 1 "10/05/2015" "English" "Welsh" NA "female" "Pre" "PO" "Pred"
"498wbE6Ds1TB31uO9iPg2FSGC" 10 "6post2" "Dora_the_explorer_will_throw_the_puppy_a_hamster" "Can_you_throw_puppy_the_hamster?" "right" "left" "posttest" "6/17/2019" "11:19" "left" 0 1706.135 1 "10/05/2015" "English" "Welsh" NA "female" "Pre" "PO" "Pred"
"61x4FnXrK9rg95OYskMdijIyJ" 1 "4fillerpost2" "The_prince_will_move_the_blanket_to_the_sofa" "Can_you_move_the_blanket_to_the_sofa?" "right" "left" "posttest_filler" "7/17/2019" "14:31" "right" 1 4349.135 1 "08/11/2013" "English" NA NA "female" "Post" "PO" "Pred"
"61x4FnXrK9rg95OYskMdijIyJ" 2 "3fillerpost2" "Dora_the_explorer_will_put_the_food_in_the_basket" "Can_you_put_the_food_in_the_basket?" "left" "right" "posttest_filler" "7/17/2019" "14:31" "left" 1 2592.135 1 "" "English" NA NA "female" "Post" "PO" "Pred"
"61x4FnXrK9rg95OYskMdijIyJ" 3 "4FillerPre2" "The_king_will_poke_the_jelly_with_the_fork" "Can_you_poke_the_jelly_with_the_fork?" "left" "right" "pretest_filler" "7/17/2019" "14:31" "right" 0 2246.135 1 "08/11/2013" "English" NA NA "female" "Post" "PO" "Pred"
"61x4FnXrK9rg95OYskMdijIyJ" 4 "4Pre2" "The_king_will_throw_the_turtle_a_squirrel" "Can_you_throw_the_turtle_the_squirrel?" "right" "left" "pretest" "7/17/2019" "14:31" "left" 0 1703.135 1 "08/11/2013" "English" NA NA "female" "Post" "PO" "Pred"
"61x4FnXrK9rg95OYskMdijIyJ" 5 "1FillerPre2" "Peppa_pig_will_bounce_the_ball_with_the_bat" "Can_you_bounce_the_ball_with_the_bat?" "left" "right" "pretest_filler" "7/17/2019" "14:31" "right" 0 2554.135 1 "08/11/2013" "English" NA NA "female" "Post" "PO" "Pred"
"61x4FnXrK9rg95OYskMdijIyJ" 6 "2Pre2" "The_girl_will_throw_the_elephant_a_clock" "Can_you_throw_the_elephant_the_clock?" "left" "right" "pretest" "7/17/2019" "14:31" "right" 0 3190.135 1 "08/11/2013" "English" NA NA "female" "Post" "PO" "Pred"
"61x4FnXrK9rg95OYskMdijIyJ" 7 "3Pre2" "Peppa_Pig_will_send_the_hamster_a_toy" "Can_you_send_the_hamster_the_toy?" "left" "right" "pretest" "7/17/2019" "14:31" "right" 0 5014.135 1 "08/11/2013" "English" NA NA "female" "Post" "PO" "Pred"
"61x4FnXrK9rg95OYskMdijIyJ" 8 "1Pre2" "The_boy_will_bring_the_giraffe_a_cake" "Can_you_bring_the_giraffe_the_cake?" "right" "left" "pretest" "7/17/2019" "14:31" "left" 0 2398.135 1 "08/11/2013" "English" NA NA "female" "Post" "PO" "Pred"
"61x4FnXrK9rg95OYskMdijIyJ" 9 "6Pre2" "Emily_elephant_will_bring_the_mouse_a_rabbit" "Can_you_bring_the_mouse_the_rabbit?" "right" "left" "pretest" "7/17/2019" "14:31" "left" 0 1731.135 1 "08/11/2013" "English" NA NA "female" "Post" "PO" "Pred"
"61x4FnXrK9rg95OYskMdijIyJ" 10 "5Pre2" "The_queen_will_send_the_monkey_a_horse" "Can_you_send_the_monkey_the_horse?" "right" "left" "pretest" "7/17/2019" "14:31" "left" 0 3940.135 1 "08/11/2013" "English" NA NA "female" "Post" "PO" "Pred"
"7MSbwhpozV3MbVAdES2Ot3Yed" 1 "4fillerpost2" "The_prince_will_move_the_blanket_to_the_sofa" "Can_you_move_the_blanket_to_the_sofa?" "right" "left" "posttest_filler" "7/17/2019" "14:12" "right" 1 1992.135 1 "30/11/2013" "English" NA NA "female" "Pre" "PO" "NonPred"
"7MSbwhpozV3MbVAdES2Ot3Yed" 2 "3fillerpost2" "Dora_the_explorer_will_put_the_food_in_the_basket" "Can_you_put_the_food_in_the_basket?" "left" "right" "posttest_filler" "7/17/2019" "14:12" "left" 1 2612.135 1 "30/11/2013" "English" NA NA "female" "Pre" "PO" "NonPred"
"7MSbwhpozV3MbVAdES2Ot3Yed" 3 "6post2" "Dora_the_explorer_will_throw_the_puppy_a_hamster" "Can_you_throw_puppy_the_hamster?" "left" "right" "posttest" "7/17/2019" "14:12" "left" 1 1568.135 1 "30/11/2013" "English" NA NA "female" "Pre" "PO" "NonPred"
"7MSbwhpozV3MbVAdES2Ot3Yed" 4 "1fillerpost2" "The_princess_will_tickle_the_teddy_bear_with_the_feather" "Can_you_tickle_the_teddy_bear_with_the_feather?" "left" "right" "posttest_filler" "7/17/2019" "14:12" "left" 1 3267.135 1 "30/11/2013" "English" NA NA "female" "Pre" "PO" "NonPred"
"7MSbwhpozV3MbVAdES2Ot3Yed" 5 "4Post2" "The_princess_will_send_the_lion_a_crocodile" "Can_you_send_the_lion_the_crocodile?" "right" "left" "posttest" "7/17/2019" "14:12" "right" 1 3961.135 1 "30/11/2013" "English" NA NA "female" "Pre" "PO" "NonPred"
"7MSbwhpozV3MbVAdES2Ot3Yed" 6 "2post2" "The_girl_will_bring_the_horse_an_ice_cream" "Can_you_bring_the_horse_the_ice_cream?" "left" "right" "posttest" "7/17/2019" "14:12" "left" 1 1802.135 1 "30/11/2013" "English" NA NA "female" "Pre" "PO" "NonPred"
"7MSbwhpozV3MbVAdES2Ot3Yed" 7 "1Post2" "The_boy_will_send_the_tiger_a_present" "Can_you_send_the_tiger_the_present?" "right" "left" "posttest" "7/17/2019" "14:12" "right" 1 2110.135 1 "30/11/2013" "English" NA NA "female" "Pre" "PO" "NonPred"
"7MSbwhpozV3MbVAdES2Ot3Yed" 8 "3post2" "Boots_will_throw_the_giraffe_a_balloon" "Can_you_throw_the_giraffe_the_balloon?" "right" "left" "posttest" "7/17/2019" "14:12" "right" 1 584.135 1 "30/11/2013" "English" NA NA "female" "Pre" "PO" "NonPred"
"7MSbwhpozV3MbVAdES2Ot3Yed" 9 "2fillerpost2" "Boots_will_clean_the_chair_with_the_sponge" "Can_you_clean_the_chair_with_the_sponge?" "right" "left" "posttest_filler" "7/17/2019" "14:12" "right" 1 3253.135 1 "30/11/2013" "English" NA NA "female" "Pre" "PO" "NonPred"
"7MSbwhpozV3MbVAdES2Ot3Yed" 10 "5post2" "The_prince_will_bring_the_turtle_a_cat" "Can_you_bring_the_turtle_the_cat?" "left" "right" "posttest" "7/17/2019" "14:12" "left" 1 1211.135 1 "30/11/2013" "English" NA NA "female" "Pre" "PO" "NonPred"
"7VD7Nx9teJprkUcPfXD2yLYyi" 1 "4fillerpost2" "The_prince_will_move_the_blanket_to_the_sofa" "Can_you_move_the_blanket_to_the_sofa?" "right" "left" "posttest_filler" "7/18/2019" "13:41" "right" 1 3968.135 1 "10/12/14" "English" NA NA "male" "Post" "PO" "NonPred"
"7VD7Nx9teJprkUcPfXD2yLYyi" 2 "3fillerpost2" "Dora_the_explorer_will_put_the_food_in_the_basket" "Can_you_put_the_food_in_the_basket?" "left" "right" "posttest_filler" "7/18/2019" "13:41" "left" 1 1996.135 1 "10/12/14" "English" NA NA "male" "Post" "PO" "NonPred"
"7VD7Nx9teJprkUcPfXD2yLYyi" 3 "1FillerPre2" "Peppa_pig_will_bounce_the_ball_with_the_bat" "Can_you_bounce_the_ball_with_the_bat?" "right" "left" "pretest_filler" "7/18/2019" "13:41" "left" 0 1497.135 1 "10/12/14" "English" NA NA "male" "Post" "PO" "NonPred"
"7VD7Nx9teJprkUcPfXD2yLYyi" 4 "4Pre2" "The_king_will_throw_the_turtle_a_squirrel" "Can_you_throw_the_turtle_the_squirrel?" "left" "right" "pretest" "7/18/2019" "13:41" "right" 0 840.135 1 "10/12/14" "English" NA NA "male" "Post" "PO" "NonPred"
"7VD7Nx9teJprkUcPfXD2yLYyi" 5 "5Pre2" "The_queen_will_send_the_monkey_a_horse" "Can_you_send_the_monkey_the_horse?" "right" "left" "pretest" "7/18/2019" "13:41" "right" 1 2593.135 1 "10/12/14" "English" NA NA "male" "Post" "PO" "NonPred"
"7VD7Nx9teJprkUcPfXD2yLYyi" 6 "3Pre2" "Peppa_Pig_will_send_the_hamster_a_toy" "Can_you_send_the_hamster_the_toy?" "right" "left" "pretest" "7/18/2019" "13:41" "right" 1 1561.135 1 "10/12/14" "English" NA NA "male" "Post" "PO" "NonPred"
"7VD7Nx9teJprkUcPfXD2yLYyi" 7 "2Pre2" "The_girl_will_throw_the_elephant_a_clock" "Can_you_throw_the_elephant_the_clock?" "left" "right" "pretest" "7/18/2019" "13:41" "left" 1 6901.135 1 "10/12/14" "English" NA NA "male" "Post" "PO" "NonPred"
"7VD7Nx9teJprkUcPfXD2yLYyi" 8 "4FillerPre2" "The_king_will_poke_the_jelly_with_the_fork" "Can_you_poke_the_jelly_with_the_fork?" "left" "right" "pretest_filler" "7/18/2019" "13:41" "left" 1 8374.135 1 "10/12/14" "English" NA NA "male" "Post" "PO" "NonPred"
"7VD7Nx9teJprkUcPfXD2yLYyi" 9 "6Pre2" "Emily_elephant_will_bring_the_mouse_a_rabbit" "Can_you_bring_the_mouse_the_rabbit?" "right" "left" "pretest" "7/18/2019" "13:41" "right" 1 3983.135 1 "10/12/14" "English" NA NA "male" "Post" "PO" "NonPred"
"7VD7Nx9teJprkUcPfXD2yLYyi" 10 "1Pre2" "The_boy_will_bring_the_giraffe_a_cake" "Can_you_bring_the_giraffe_the_cake?" "left" "right" "pretest" "7/18/2019" "13:41" "left" 1 6310.135 1 "10/12/14" "English" NA NA "male" "Post" "PO" "NonPred"
"7xoupuLiWWN49ct7OYCyzg4U1" 1 "4fillerpost2" "The_prince_will_move_the_blanket_to_the_sofa" "Can_you_move_the_blanket_to_the_sofa?" "right" "left" "posttest_filler" "6/25/2019" "11:32" "left" 0 324.135 1 "11/5/15" "English" NA NA "male" "Post" "DO" "NonPred"
"7xoupuLiWWN49ct7OYCyzg4U1" 2 "3fillerpost2" "Dora_the_explorer_will_put_the_food_in_the_basket" "Can_you_put_the_food_in_the_basket?" "left" "right" "posttest_filler" "6/25/2019" "11:32" "left" 1 2826.135 1 "11/5/15" "English" NA NA "male" "Post" "DO" "NonPred"
"7xoupuLiWWN49ct7OYCyzg4U1" 3 "3Pre2" "Peppa_Pig_will_send_the_hamster_a_toy" "Can_you_send_the_hamster_the_toy?" "left" "right" "pretest" "6/25/2019" "11:32" "left" 1 6225.135 1 "11/5/15" "English" NA NA "male" "Post" "DO" "NonPred"
"7xoupuLiWWN49ct7OYCyzg4U1" 4 "4Pre2" "The_king_will_throw_the_turtle_a_squirrel" "Can_you_throw_the_turtle_the_squirrel?" "left" "right" "pretest" "6/25/2019" "11:32" "right" 0 492.135 1 "11/5/15" "English" NA NA "male" "Post" "DO" "NonPred"
"7xoupuLiWWN49ct7OYCyzg4U1" 5 "1FillerPre2" "Peppa_pig_will_bounce_the_ball_with_the_bat" "Can_you_bounce_the_ball_with_the_bat?" "right" "left" "pretest_filler" "6/25/2019" "11:32" "left" 0 1098.135 1 "11/5/15" "English" NA NA "male" "Post" "DO" "NonPred"
"7xoupuLiWWN49ct7OYCyzg4U1" 6 "6Pre2" "Emily_elephant_will_bring_the_mouse_a_rabbit" "Can_you_bring_the_mouse_the_rabbit?" "right" "left" "pretest" "6/25/2019" "11:32" "left" 0 7072.135 1 "11/5/15" "English" NA NA "male" "Post" "DO" "NonPred"
"7xoupuLiWWN49ct7OYCyzg4U1" 7 "2Pre2" "The_girl_will_throw_the_elephant_a_clock" "Can_you_throw_the_elephant_the_clock?" "left" "right" "pretest" "6/25/2019" "11:32" "right" 0 567.135 1 "11/5/15" "English" NA NA "male" "Post" "DO" "NonPred"
"7xoupuLiWWN49ct7OYCyzg4U1" 8 "5Pre2" "The_queen_will_send_the_monkey_a_horse" "Can_you_send_the_monkey_the_horse?" "right" "left" "pretest" "6/25/2019" "11:32" "right" 1 544.135 1 "11/5/15" "English" NA NA "male" "Post" "DO" "NonPred"
"7xoupuLiWWN49ct7OYCyzg4U1" 9 "4FillerPre2" "The_king_will_poke_the_jelly_with_the_fork" "Can_you_poke_the_jelly_with_the_fork?" "left" "right" "pretest_filler" "6/25/2019" "11:32" "right" 0 15426.135 1 "11/5/15" "English" NA NA "male" "Post" "DO" "NonPred"
"7xoupuLiWWN49ct7OYCyzg4U1" 10 "1Pre2" "The_boy_will_bring_the_giraffe_a_cake" "Can_you_bring_the_giraffe_the_cake?" "right" "left" "pretest" "6/25/2019" "11:32" "right" 1 2273.135 1 "11/5/15" "English" NA NA "male" "Post" "DO" "NonPred"
"8j4VM43BeCn8rJgGNRSr36Zqu" 1 "4fillerpost2" "The_prince_will_move_the_blanket_to_the_sofa" "Can_you_move_the_blanket_to_the_sofa?" "right" "left" "posttest_filler" "7/1/2019" "09:58" "right" 1 1660.135 1 "20/05/15" "English" NA NA "male" "Post" "PO" "Pred"
"8j4VM43BeCn8rJgGNRSr36Zqu" 2 "3fillerpost2" "Dora_the_explorer_will_put_the_food_in_the_basket" "Can_you_put_the_food_in_the_basket?" "left" "right" "posttest_filler" "7/1/2019" "09:58" "left" 1 1084.135 1 "20/05/15" "English" NA NA "male" "Post" "PO" "Pred"
"8j4VM43BeCn8rJgGNRSr36Zqu" 3 "4FillerPre2" "The_king_will_poke_the_jelly_with_the_fork" "Can_you_poke_the_jelly_with_the_fork?" "right" "left" "pretest_filler" "7/1/2019" "09:58" "right" 1 1963.135 1 "20/05/15" "English" NA NA "male" "Post" "PO" "Pred"
"8j4VM43BeCn8rJgGNRSr36Zqu" 4 "4Pre2" "The_king_will_throw_the_turtle_a_squirrel" "Can_you_throw_the_turtle_the_squirrel?" "left" "right" "pretest" "7/1/2019" "09:58" "right" 0 978.135 1 "20/05/15" "English" NA NA "male" "Post" "PO" "Pred"
"8j4VM43BeCn8rJgGNRSr36Zqu" 5 "1FillerPre2" "Peppa_pig_will_bounce_the_ball_with_the_bat" "Can_you_bounce_the_ball_with_the_bat?" "left" "right" "pretest_filler" "7/1/2019" "09:58" "right" 0 3366.135 1 "20/05/15" "English" NA NA "male" "Post" "PO" "Pred"
"8j4VM43BeCn8rJgGNRSr36Zqu" 6 "1Pre2" "The_boy_will_bring_the_giraffe_a_cake" "Can_you_bring_the_giraffe_the_cake?" "left" "right" "pretest" "7/1/2019" "09:58" "left" 1 1281.135 1 "20/05/15" "English" NA NA "male" "Post" "PO" "Pred"
"8j4VM43BeCn8rJgGNRSr36Zqu" 7 "5Pre2" "The_queen_will_send_the_monkey_a_horse" "Can_you_send_the_monkey_the_horse?" "right" "left" "pretest" "7/1/2019" "09:58" "right" 1 1708.135 1 "20/05/15" "English" NA NA "male" "Post" "PO" "Pred"
"8j4VM43BeCn8rJgGNRSr36Zqu" 8 "6Pre2" "Emily_elephant_will_bring_the_mouse_a_rabbit" "Can_you_bring_the_mouse_the_rabbit?" "right" "left" "pretest" "7/1/2019" "09:58" "left" 0 1550.135 1 "20/05/15" "English" NA NA "male" "Post" "PO" "Pred"
"8j4VM43BeCn8rJgGNRSr36Zqu" 9 "2Pre2" "The_girl_will_throw_the_elephant_a_clock" "Can_you_throw_the_elephant_the_clock?" "right" "left" "pretest" "7/1/2019" "09:58" "right" 1 2877.135 1 "20/05/15" "English" NA NA "male" "Post" "PO" "Pred"
"8j4VM43BeCn8rJgGNRSr36Zqu" 10 "3Pre2" "Peppa_Pig_will_send_the_hamster_a_toy" "Can_you_send_the_hamster_the_toy?" "left" "right" "pretest" "7/1/2019" "09:58" "right" 0 1788.135 1 "20/05/15" "English" NA NA "male" "Post" "PO" "Pred"
"8jgAPlNrNhf7NHal2NhRU5cKP" 1 "4fillerpost2" "The_prince_will_move_the_blanket_to_the_sofa" "Can_you_move_the_blanket_to_the_sofa?" "right" "left" "posttest_filler" "07/08/2019" "10:40" "right" 1 1858.135 1 "23/03/2015" "English" NA NA "female" "Pre" "DO" "Pred"
"8jgAPlNrNhf7NHal2NhRU5cKP" 2 "3fillerpost2" "Dora_the_explorer_will_put_the_food_in_the_basket" "Can_you_put_the_food_in_the_basket?" "left" "right" "posttest_filler" "07/08/2019" "10:40" "left" 1 2765.135 1 "23/03/2015" "English" NA NA "female" "Pre" "DO" "Pred"
"8jgAPlNrNhf7NHal2NhRU5cKP" 3 "4Post2" "The_princess_will_send_the_lion_a_crocodile" "Can_you_send_the_lion_the_crocodile?" "left" "right" "posttest" "07/08/2019" "10:40" "left" 1 1488.135 1 "23/03/2015" "English" NA NA "female" "Pre" "DO" "Pred"
"8jgAPlNrNhf7NHal2NhRU5cKP" 4 "2post2" "The_girl_will_bring_the_horse_an_ice_cream" "Can_you_bring_the_horse_the_ice_cream?" "right" "left" "posttest" "07/08/2019" "10:40" "right" 1 3280.135 1 "23/03/2015" "English" NA NA "female" "Pre" "DO" "Pred"
"8jgAPlNrNhf7NHal2NhRU5cKP" 5 "2fillerpost2" "Boots_will_clean_the_chair_with_the_sponge" "Can_you_clean_the_chair_with_the_sponge?" "left" "right" "posttest_filler" "07/08/2019" "10:40" "left" 1 5592.135 1 "23/03/2015" "English" NA NA "female" "Pre" "DO" "Pred"
"8jgAPlNrNhf7NHal2NhRU5cKP" 6 "5post2" "The_prince_will_bring_the_turtle_a_cat" "Can_you_bring_the_turtle_the_cat?" "right" "left" "posttest" "07/08/2019" "10:40" "left" 0 4858.135 1 "23/03/2015" "English" NA NA "female" "Pre" "DO" "Pred"
"8jgAPlNrNhf7NHal2NhRU5cKP" 7 "6post2" "Dora_the_explorer_will_throw_the_puppy_a_hamster" "Can_you_throw_puppy_the_hamster?" "left" "right" "posttest" "07/08/2019" "10:40" "left" 1 1079.135 1 "23/03/2015" "English" NA NA "female" "Pre" "DO" "Pred"
"8jgAPlNrNhf7NHal2NhRU5cKP" 8 "1Post2" "The_boy_will_send_the_tiger_a_present" "Can_you_send_the_tiger_the_present?" "right" "left" "posttest" "07/08/2019" "10:40" "right" 1 2469.135 1 "23/03/2015" "English" NA NA "female" "Pre" "DO" "Pred"
"8jgAPlNrNhf7NHal2NhRU5cKP" 9 "3post2" "Boots_will_throw_the_giraffe_a_balloon" "Can_you_throw_the_giraffe_the_balloon?" "left" "right" "posttest" "07/08/2019" "10:40" "left" 1 745.135 1 "23/03/2015" "English" NA NA "female" "Pre" "DO" "Pred"
"8jgAPlNrNhf7NHal2NhRU5cKP" 10 "1fillerpost2" "The_princess_will_tickle_the_teddy_bear_with_the_feather" "Can_you_tickle_the_teddy_bear_with_the_feather?" "right" "left" "posttest_filler" "07/08/2019" "10:40" "left" 0 1617.135 1 "23/03/2015" "English" NA NA "female" "Pre" "DO" "Pred"
"9oOzdNvMMW6vNEGycT3BoCh0X" 1 "4fillerpost2" "The_prince_will_move_the_blanket_to_the_sofa" "Can_you_move_the_blanket_to_the_sofa?" "right" "left" "posttest_filler" "7/18/2019" "12:47" "right" 1 3041.135 1 "06/02/15" "English" NA NA "Female" "Pre" "PO" "NonPred"
"9oOzdNvMMW6vNEGycT3BoCh0X" 2 "3fillerpost2" "Dora_the_explorer_will_put_the_food_in_the_basket" "Can_you_put_the_food_in_the_basket?" "left" "right" "posttest_filler" "7/18/2019" "12:47" "left" 1 4227.135 1 "06/02/15" "English" NA NA "Female" "Pre" "PO" "NonPred"
"9oOzdNvMMW6vNEGycT3BoCh0X" 3 "4Post2" "The_princess_will_send_the_lion_a_crocodile" "Can_you_send_the_lion_the_crocodile?" "left" "right" "posttest" "7/18/2019" "12:47" "left" 1 2341.135 1 "06/02/15" "English" NA NA "Female" "Pre" "PO" "NonPred"
"9oOzdNvMMW6vNEGycT3BoCh0X" 4 "2fillerpost2" "Boots_will_clean_the_chair_with_the_sponge" "Can_you_clean_the_chair_with_the_sponge?" "right" "left" "posttest_filler" "7/18/2019" "12:47" "right" 1 2430.135 1 "06/02/15" "English" NA NA "Female" "Pre" "PO" "NonPred"
"9oOzdNvMMW6vNEGycT3BoCh0X" 5 "1Post2" "The_boy_will_send_the_tiger_a_present" "Can_you_send_the_tiger_the_present?" "left" "right" "posttest" "7/18/2019" "12:47" "left" 1 1457.135 1 "06/02/15" "English" NA NA "Female" "Pre" "PO" "NonPred"
"9oOzdNvMMW6vNEGycT3BoCh0X" 6 "6post2" "Dora_the_explorer_will_throw_the_puppy_a_hamster" "Can_you_throw_puppy_the_hamster?" "right" "left" "posttest" "7/18/2019" "12:47" "right" 1 1875.135 1 "06/02/15" "English" NA NA "Female" "Pre" "PO" "NonPred"
"9oOzdNvMMW6vNEGycT3BoCh0X" 7 "1fillerpost2" "The_princess_will_tickle_the_teddy_bear_with_the_feather" "Can_you_tickle_the_teddy_bear_with_the_feather?" "right" "left" "posttest_filler" "7/18/2019" "12:47" "right" 1 2119.135 1 "06/02/15" "English" NA NA "Female" "Pre" "PO" "NonPred"
"9oOzdNvMMW6vNEGycT3BoCh0X" 8 "5post2" "The_prince_will_bring_the_turtle_a_cat" "Can_you_bring_the_turtle_the_cat?" "right" "left" "posttest" "7/18/2019" "12:47" "right" 1 2029.135 1 "06/02/15" "English" NA NA "Female" "Pre" "PO" "NonPred"
"9oOzdNvMMW6vNEGycT3BoCh0X" 9 "2post2" "The_girl_will_bring_the_horse_an_ice_cream" "Can_you_bring_the_horse_the_ice_cream?" "left" "right" "posttest" "7/18/2019" "12:47" "left" 1 1612.135 1 "06/02/15" "English" NA NA "Female" "Pre" "PO" "NonPred"
"9oOzdNvMMW6vNEGycT3BoCh0X" 10 "3post2" "Boots_will_throw_the_giraffe_a_balloon" "Can_you_throw_the_giraffe_the_balloon?" "left" "right" "posttest" "7/18/2019" "12:47" "left" 1 1990.135 1 "06/02/15" "English" NA NA "Female" "Pre" "PO" "NonPred"
"abk1MlG2uScorBpf4reBJlCSx" 1 "4fillerpost2" "The_prince_will_move_the_blanket_to_the_sofa" "Can_you_move_the_blanket_to_the_sofa?" "right" "left" "posttest_filler" "7/17/2019" "11:09" "right" 1 2359.135 1 "15/11/14" "English" NA NA "male" "Post" "DO" "NonPred"
"abk1MlG2uScorBpf4reBJlCSx" 2 "3fillerpost2" "Dora_the_explorer_will_put_the_food_in_the_basket" "Can_you_put_the_food_in_the_basket?" "left" "right" "posttest_filler" "7/17/2019" "11:09" "left" 1 4680.135 1 "15/11/14" "English" NA NA "male" "Post" "DO" "NonPred"
"abk1MlG2uScorBpf4reBJlCSx" 3 "4Pre2" "The_king_will_throw_the_turtle_a_squirrel" "Can_you_throw_the_turtle_the_squirrel?" "left" "right" "pretest" "7/17/2019" "11:09" "right" 0 1800.135 1 "15/11/14" "English" NA NA "male" "Post" "DO" "NonPred"
"abk1MlG2uScorBpf4reBJlCSx" 4 "2Pre2" "The_girl_will_throw_the_elephant_a_clock" "Can_you_throw_the_elephant_the_clock?" "right" "left" "pretest" "7/17/2019" "11:09" "right" 1 6273.135 1 "15/11/14" "English" NA NA "male" "Post" "DO" "NonPred"
"abk1MlG2uScorBpf4reBJlCSx" 5 "6Pre2" "Emily_elephant_will_bring_the_mouse_a_rabbit" "Can_you_bring_the_mouse_the_rabbit?" "left" "right" "pretest" "7/17/2019" "11:09" "right" 0 1147.135 1 "15/11/14" "English" NA NA "male" "Post" "DO" "NonPred"
"abk1MlG2uScorBpf4reBJlCSx" 6 "5Pre2" "The_queen_will_send_the_monkey_a_horse" "Can_you_send_the_monkey_the_horse?" "right" "left" "pretest" "7/17/2019" "11:09" "left" 0 2025.135 1 "15/11/14" "English" NA NA "male" "Post" "DO" "NonPred"
"abk1MlG2uScorBpf4reBJlCSx" 7 "4FillerPre2" "The_king_will_poke_the_jelly_with_the_fork" "Can_you_poke_the_jelly_with_the_fork?" "right" "left" "pretest_filler" "7/17/2019" "11:09" "left" 0 5129.135 1 "15/11/14" "English" NA NA "male" "Post" "DO" "NonPred"
"abk1MlG2uScorBpf4reBJlCSx" 8 "1FillerPre2" "Peppa_pig_will_bounce_the_ball_with_the_bat" "Can_you_bounce_the_ball_with_the_bat?" "left" "right" "pretest_filler" "7/17/2019" "11:09" "right" 0 1163.135 1 "15/11/14" "English" NA NA "male" "Post" "DO" "NonPred"
"abk1MlG2uScorBpf4reBJlCSx" 9 "3Pre2" "Peppa_Pig_will_send_the_hamster_a_toy" "Can_you_send_the_hamster_the_toy?" "left" "right" "pretest" "7/17/2019" "11:09" "left" 1 1220.135 1 "15/11/14" "English" NA NA "male" "Post" "DO" "NonPred"
"abk1MlG2uScorBpf4reBJlCSx" 10 "1Pre2" "The_boy_will_bring_the_giraffe_a_cake" "Can_you_bring_the_giraffe_the_cake?" "right" "left" "pretest" "7/17/2019" "11:09" "right" 1 1542.135 1 "15/11/14" "English" NA NA "male" "Post" "DO" "NonPred"
"ADXIiawnQr5yIJGK7wAHFuoWo" 1 "4fillerpost2" "The_prince_will_move_the_blanket_to_the_sofa" "Can_you_move_the_blanket_to_the_sofa?" "right" "left" "posttest_filler" "4/17/2019" "12:56" "right" 1 2612.135 1 "04/09/2014" "English" NA NA "male" "Post" "DO" "Pred"
"ADXIiawnQr5yIJGK7wAHFuoWo" 2 "3fillerpost2" "Dora_the_explorer_will_put_the_food_in_the_basket" "Can_you_put_the_food_in_the_basket?" "left" "right" "posttest_filler" "4/17/2019" "12:56" "left" 1 1755.135 1 "04/09/2014" "English" NA NA "male" "Post" "DO" "Pred"
"ADXIiawnQr5yIJGK7wAHFuoWo" 3 "1FillerPre2" "Peppa_pig_will_bounce_the_ball_with_the_bat" "Can_you_bounce_the_ball_with_the_bat?" "left" "right" "pretest_filler" "4/17/2019" "12:56" "right" 0 7077.135 1 "04/09/2014" "English" NA NA "male" "Post" "DO" "Pred"
"ADXIiawnQr5yIJGK7wAHFuoWo" 4 "4FillerPre2" "The_king_will_poke_the_jelly_with_the_fork" "Can_you_poke_the_jelly_with_the_fork?" "right" "left" "pretest_filler" "4/17/2019" "12:56" "right" 1 5744.135 1 "04/09/2014" "English" NA NA "male" "Post" "DO" "Pred"
"ADXIiawnQr5yIJGK7wAHFuoWo" 5 "5Pre2" "The_queen_will_send_the_monkey_a_horse" "Can_you_send_the_monkey_the_horse?" "right" "left" "pretest" "4/17/2019" "12:56" "left" 0 1144.135 1 "04/09/2014" "English" NA NA "male" "Post" "DO" "Pred"
"ADXIiawnQr5yIJGK7wAHFuoWo" 6 "1Pre2" "The_boy_will_bring_the_giraffe_a_cake" "Can_you_bring_the_giraffe_the_cake?" "right" "left" "pretest" "4/17/2019" "12:56" "left" 0 2290.135 1 "04/09/2014" "English" NA NA "male" "Post" "DO" "Pred"
"ADXIiawnQr5yIJGK7wAHFuoWo" 7 "3Pre2" "Peppa_Pig_will_send_the_hamster_a_toy" "Can_you_send_the_hamster_the_toy?" "left" "right" "pretest" "4/17/2019" "12:56" "right" 0 1178.135 1 "04/09/2014" "English" NA NA "male" "Post" "DO" "Pred"
"ADXIiawnQr5yIJGK7wAHFuoWo" 8 "4Pre2" "The_king_will_throw_the_turtle_a_squirrel" "Can_you_throw_the_turtle_the_squirrel?" "left" "right" "pretest" "4/17/2019" "12:56" "right" 0 8398.135 1 "04/09/2014" "English" NA NA "male" "Post" "DO" "Pred"
"ADXIiawnQr5yIJGK7wAHFuoWo" 9 "2Pre2" "The_girl_will_throw_the_elephant_a_clock" "Can_you_throw_the_elephant_the_clock?" "left" "right" "pretest" "4/17/2019" "12:56" "left" 1 4261.135 1 "04/09/2014" "English" NA NA "male" "Post" "DO" "Pred"
"ADXIiawnQr5yIJGK7wAHFuoWo" 10 "6Pre2" "Emily_elephant_will_bring_the_mouse_a_rabbit" "Can_you_bring_the_mouse_the_rabbit?" "right" "left" "pretest" "4/17/2019" "12:56" "right" 1 2101.135 1 "04/09/2014" "English" NA NA "male" "Post" "DO" "Pred"
"AvrWsudy6bn6efmJizjfrJFJh" 1 "4fillerpost2" "The_prince_will_move_the_blanket_to_the_sofa" "Can_you_move_the_blanket_to_the_sofa?" "right" "left" "posttest_filler" "6/25/2019" "09:21" "right" 1 2131.135 1 "25/07/2014" "English" NA NA "female" "Post" "PO" "Pred"
"AvrWsudy6bn6efmJizjfrJFJh" 2 "3fillerpost2" "Dora_the_explorer_will_put_the_food_in_the_basket" "Can_you_put_the_food_in_the_basket?" "left" "right" "posttest_filler" "6/25/2019" "09:21" "left" 1 1913.135 1 "25/07/2014" "English" NA NA "female" "Post" "PO" "Pred"
"AvrWsudy6bn6efmJizjfrJFJh" 3 "1FillerPre2" "Peppa_pig_will_bounce_the_ball_with_the_bat" "Can_you_bounce_the_ball_with_the_bat?" "right" "left" "pretest_filler" "6/25/2019" "09:21" "left" 0 1117.135 1 "25/07/2014" "English" NA NA "female" "Post" "PO" "Pred"
"AvrWsudy6bn6efmJizjfrJFJh" 4 "3Pre2" "Peppa_Pig_will_send_the_hamster_a_toy" "Can_you_send_the_hamster_the_toy?" "right" "left" "pretest" "6/25/2019" "09:21" "left" 0 1582.135 1 "25/07/2014" "English" NA NA "female" "Post" "PO" "Pred"
"AvrWsudy6bn6efmJizjfrJFJh" 5 "4FillerPre2" "The_king_will_poke_the_jelly_with_the_fork" "Can_you_poke_the_jelly_with_the_fork?" "left" "right" "pretest_filler" "6/25/2019" "09:21" "left" 1 3198.135 1 "25/07/2014" "English" NA NA "female" "Post" "PO" "Pred"
"AvrWsudy6bn6efmJizjfrJFJh" 6 "1Pre2" "The_boy_will_bring_the_giraffe_a_cake" "Can_you_bring_the_giraffe_the_cake?" "right" "left" "pretest" "6/25/2019" "09:21" "left" 0 1080.135 1 "25/07/2014" "English" NA NA "female" "Post" "PO" "Pred"
"AvrWsudy6bn6efmJizjfrJFJh" 7 "6Pre2" "Emily_elephant_will_bring_the_mouse_a_rabbit" "Can_you_bring_the_mouse_the_rabbit?" "left" "right" "pretest" "6/25/2019" "09:21" "right" 0 1941.135 1 "25/07/2014" "English" NA NA "female" "Post" "PO" "Pred"
"AvrWsudy6bn6efmJizjfrJFJh" 8 "4Pre2" "The_king_will_throw_the_turtle_a_squirrel" "Can_you_throw_the_turtle_the_squirrel?" "right" "left" "pretest" "6/25/2019" "09:21" "right" 1 4966.135 1 "25/07/2014" "English" NA NA "female" "Post" "PO" "Pred"
"AvrWsudy6bn6efmJizjfrJFJh" 9 "5Pre2" "The_queen_will_send_the_monkey_a_horse" "Can_you_send_the_monkey_the_horse?" "left" "right" "pretest" "6/25/2019" "09:21" "right" 0 2551.135 1 "25/07/2014" "English" NA NA "female" "Post" "PO" "Pred"
"AvrWsudy6bn6efmJizjfrJFJh" 10 "2Pre2" "The_girl_will_throw_the_elephant_a_clock" "Can_you_throw_the_elephant_the_clock?" "left" "right" "pretest" "6/25/2019" "09:21" "right" 0 2190.135 1 "25/07/2014" "English" NA NA "female" "Post" "PO" "Pred"
"AX082cIs5N5jjZORvfNQmWpNp" 1 "4fillerpost2" "The_prince_will_move_the_blanket_to_the_sofa" "Can_you_move_the_blanket_to_the_sofa?" "right" "left" "posttest_filler" "4/24/2019" "11:53" "right" 1 3116.135 1 "25/09/2014" "English" NA NA "female" "Post" "PO" "Pred"
"AX082cIs5N5jjZORvfNQmWpNp" 2 "3fillerpost2" "Dora_the_explorer_will_put_the_food_in_the_basket" "Can_you_put_the_food_in_the_basket?" "left" "right" "posttest_filler" "4/24/2019" "11:53" "left" 1 3538.135 1 "25/09/2014" "English" NA NA "female" "Post" "PO" "Pred"
"AX082cIs5N5jjZORvfNQmWpNp" 3 "5Pre2" "The_queen_will_send_the_monkey_a_horse" "Can_you_send_the_monkey_the_horse?" "left" "right" "pretest" "4/24/2019" "11:53" "left" 1 1934.135 1 "25/09/2014" "English" NA NA "female" "Post" "PO" "Pred"
"AX082cIs5N5jjZORvfNQmWpNp" 4 "4Pre2" "The_king_will_throw_the_turtle_a_squirrel" "Can_you_throw_the_turtle_the_squirrel?" "right" "left" "pretest" "4/24/2019" "11:53" "right" 1 31572.135 1 "25/09/2014" "English" NA NA "female" "Post" "PO" "Pred"
"AX082cIs5N5jjZORvfNQmWpNp" 5 "4FillerPre2" "The_king_will_poke_the_jelly_with_the_fork" "Can_you_poke_the_jelly_with_the_fork?" "left" "right" "pretest_filler" "4/24/2019" "11:53" "left" 1 2777.135 1 "25/09/2014" "English" NA NA "female" "Post" "PO" "Pred"
"AX082cIs5N5jjZORvfNQmWpNp" 6 "3Pre2" "Peppa_Pig_will_send_the_hamster_a_toy" "Can_you_send_the_hamster_the_toy?" "right" "left" "pretest" "4/24/2019" "11:53" "right" 1 3522.135 1 "25/09/2014" "English" NA NA "female" "Post" "PO" "Pred"
"AX082cIs5N5jjZORvfNQmWpNp" 7 "2Pre2" "The_girl_will_throw_the_elephant_a_clock" "Can_you_throw_the_elephant_the_clock?" "left" "right" "pretest" "4/24/2019" "11:53" "left" 1 1916.135 1 "25/09/2014" "English" NA NA "female" "Post" "PO" "Pred"
"AX082cIs5N5jjZORvfNQmWpNp" 8 "1Pre2" "The_boy_will_bring_the_giraffe_a_cake" "Can_you_bring_the_giraffe_the_cake?" "left" "right" "pretest" "4/24/2019" "11:53" "left" 1 5181.135 1 "25/09/2014" "English" NA NA "female" "Post" "PO" "Pred"
"AX082cIs5N5jjZORvfNQmWpNp" 9 "6Pre2" "Emily_elephant_will_bring_the_mouse_a_rabbit" "Can_you_bring_the_mouse_the_rabbit?" "right" "left" "pretest" "4/24/2019" "11:53" "right" 1 4910.135 1 "25/09/2014" "English" NA NA "female" "Post" "PO" "Pred"
"AX082cIs5N5jjZORvfNQmWpNp" 10 "1FillerPre2" "Peppa_pig_will_bounce_the_ball_with_the_bat" "Can_you_bounce_the_ball_with_the_bat?" "right" "left" "pretest_filler" "4/24/2019" "11:53" "right" 1 3403.135 1 "25/09/2014" "English" NA NA "female" "Post" "PO" "Pred"
"CcaRecvQJxLPFcSqlx9GAxcDv" 1 "4fillerpost2" "The_prince_will_move_the_blanket_to_the_sofa" "Can_you_move_the_blanket_to_the_sofa?" "right" "left" "posttest_filler" "7/17/2019" "10:36" "right" 1 2834.135 1 "24/09/2014" "English" NA NA "male" "Post" "DO" "Pred"
"CcaRecvQJxLPFcSqlx9GAxcDv" 2 "3fillerpost2" "Dora_the_explorer_will_put_the_food_in_the_basket" "Can_you_put_the_food_in_the_basket?" "left" "right" "posttest_filler" "7/17/2019" "10:36" "left" 1 1444.135 1 "24/09/2014" "English" NA NA "male" "Post" "DO" "Pred"
"CcaRecvQJxLPFcSqlx9GAxcDv" 3 "5Pre2" "The_queen_will_send_the_monkey_a_horse" "Can_you_send_the_monkey_the_horse?" "left" "right" "pretest" "7/17/2019" "10:36" "right" 0 1462.135 1 "24/09/2014" "English" NA NA "male" "Post" "DO" "Pred"
"CcaRecvQJxLPFcSqlx9GAxcDv" 4 "1Pre2" "The_boy_will_bring_the_giraffe_a_cake" "Can_you_bring_the_giraffe_the_cake?" "left" "right" "pretest" "7/17/2019" "10:36" "right" 0 2229.135 1 "24/09/2014" "English" NA NA "male" "Post" "DO" "Pred"
"CcaRecvQJxLPFcSqlx9GAxcDv" 5 "2Pre2" "The_girl_will_throw_the_elephant_a_clock" "Can_you_throw_the_elephant_the_clock?" "right" "left" "pretest" "7/17/2019" "10:36" "right" 1 3520.135 1 "24/09/2014" "English" NA NA "male" "Post" "DO" "Pred"
"CcaRecvQJxLPFcSqlx9GAxcDv" 6 "3Pre2" "Peppa_Pig_will_send_the_hamster_a_toy" "Can_you_send_the_hamster_the_toy?" "left" "right" "pretest" "7/17/2019" "10:36" "left" 1 1684.135 1 "24/09/2014" "English" NA NA "male" "Post" "DO" "Pred"
"CcaRecvQJxLPFcSqlx9GAxcDv" 7 "6Pre2" "Emily_elephant_will_bring_the_mouse_a_rabbit" "Can_you_bring_the_mouse_the_rabbit?" "right" "left" "pretest" "7/17/2019" "10:36" "right" 1 1753.135 1 "24/09/2014" "English" NA NA "male" "Post" "DO" "Pred"
"CcaRecvQJxLPFcSqlx9GAxcDv" 8 "4Pre2" "The_king_will_throw_the_turtle_a_squirrel" "Can_you_throw_the_turtle_the_squirrel?" "left" "right" "pretest" "7/17/2019" "10:36" "right" 0 1294.135 1 "24/09/2014" "English" NA NA "male" "Post" "DO" "Pred"
"CcaRecvQJxLPFcSqlx9GAxcDv" 9 "1FillerPre2" "Peppa_pig_will_bounce_the_ball_with_the_bat" "Can_you_bounce_the_ball_with_the_bat?" "right" "left" "pretest_filler" "7/17/2019" "10:36" "left" 0 5402.135 1 "24/09/2014" "English" NA NA "male" "Post" "DO" "Pred"
"CcaRecvQJxLPFcSqlx9GAxcDv" 10 "4FillerPre2" "The_king_will_poke_the_jelly_with_the_fork" "Can_you_poke_the_jelly_with_the_fork?" "right" "left" "pretest_filler" "7/17/2019" "10:36" "right" 1 4225.135 1 "24/09/2014" "English" NA NA "male" "Post" "DO" "Pred"
"cLQYf22jOn4YeuPZXT1eHM053" 1 "4fillerpost2" "The_prince_will_move_the_blanket_to_the_sofa" "Can_you_move_the_blanket_to_the_sofa?" "right" "left" "posttest_filler" "06/05/2019" "14:35" "left" 0 5957.135 1 "03.03.15" "English" "Portugese" "Language delay, comprehension great" "male" "Pre" "DO" "NonPred"
"cLQYf22jOn4YeuPZXT1eHM053" 2 "3fillerpost2" "Dora_the_explorer_will_put_the_food_in_the_basket" "Can_you_put_the_food_in_the_basket?" "left" "right" "posttest_filler" "06/05/2019" "14:35" "left" 1 2306.135 1 "03.03.15" "English" "Portugese" "" "male" "Pre" "DO" "NonPred"
"cLQYf22jOn4YeuPZXT1eHM053" 3 "5post2" "The_prince_will_bring_the_turtle_a_cat" "Can_you_bring_the_turtle_the_cat?" "left" "right" "posttest" "06/05/2019" "14:35" "left" 1 2537.135 1 "03.03.15" "English" "Portugese" "" "male" "Pre" "DO" "NonPred"
"cLQYf22jOn4YeuPZXT1eHM053" 4 "1fillerpost2" "The_princess_will_tickle_the_teddy_bear_with_the_feather" "Can_you_tickle_the_teddy_bear_with_the_feather?" "left" "right" "posttest_filler" "06/05/2019" "14:35" "left" 1 2317.135 1 "03.03.15" "English" "Portugese" "" "male" "Pre" "DO" "NonPred"
"cLQYf22jOn4YeuPZXT1eHM053" 5 "2post2" "The_girl_will_bring_the_horse_an_ice_cream" "Can_you_bring_the_horse_the_ice_cream?" "right" "left" "posttest" "06/05/2019" "14:35" "right" 1 2019.135 2 "03.03.15" "English" "Portugese" "" "male" "Pre" "DO" "NonPred"
"cLQYf22jOn4YeuPZXT1eHM053" 6 "6post2" "Dora_the_explorer_will_throw_the_puppy_a_hamster" "Can_you_throw_puppy_the_hamster?" "left" "right" "posttest" "06/05/2019" "14:35" "right" 0 4558.135 1 "03.03.15" "English" "Portugese" "" "male" "Pre" "DO" "NonPred"
"cLQYf22jOn4YeuPZXT1eHM053" 7 "4Post2" "The_princess_will_send_the_lion_a_crocodile" "Can_you_send_the_lion_the_crocodile?" "right" "left" "posttest" "06/05/2019" "14:35" "right" 1 4062.135 1 "03.03.15" "English" "Portugese" "" "male" "Pre" "DO" "NonPred"
"cLQYf22jOn4YeuPZXT1eHM053" 8 "1Post2" "The_boy_will_send_the_tiger_a_present" "Can_you_send_the_tiger_the_present?" "right" "left" "posttest" "06/05/2019" "14:35" "right" 1 3209.135 1 "03.03.15" "English" "Portugese" "" "male" "Pre" "DO" "NonPred"
"cLQYf22jOn4YeuPZXT1eHM053" 9 "2fillerpost2" "Boots_will_clean_the_chair_with_the_sponge" "Can_you_clean_the_chair_with_the_sponge?" "left" "right" "posttest_filler" "06/05/2019" "14:35" "left" 1 1658.135 1 "03.03.15" "English" "Portugese" "" "male" "Pre" "DO" "NonPred"
"cLQYf22jOn4YeuPZXT1eHM053" 10 "3post2" "Boots_will_throw_the_giraffe_a_balloon" "Can_you_throw_the_giraffe_the_balloon?" "right" "left" "posttest" "06/05/2019" "14:35" "right" 1 3394.135 1 "03.03.15" "English" "Portugese" "" "male" "Pre" "DO" "NonPred"
"Co8n5Rdiwg7ItIlIvt1Y8UAh8" 1 "4fillerpost2" "The_prince_will_move_the_blanket_to_the_sofa" "Can_you_move_the_blanket_to_the_sofa?" "right" "left" "posttest_filler" "07/08/2019" "10:58" "right" 1 1243.135 1 "24/05/2019" "English" NA NA "male" "Post" "DO" "Pred"
"Co8n5Rdiwg7ItIlIvt1Y8UAh8" 2 "3fillerpost2" "Dora_the_explorer_will_put_the_food_in_the_basket" "Can_you_put_the_food_in_the_basket?" "left" "right" "posttest_filler" "07/08/2019" "10:58" "left" 1 3449.135 1 "24/05/2019" "English" NA NA "male" "Post" "DO" "Pred"
"Co8n5Rdiwg7ItIlIvt1Y8UAh8" 3 "6Pre2" "Emily_elephant_will_bring_the_mouse_a_rabbit" "Can_you_bring_the_mouse_the_rabbit?" "right" "left" "pretest" "07/08/2019" "10:58" "right" 1 1024.135 1 "24/05/2019" "English" NA NA "male" "Post" "DO" "Pred"
"Co8n5Rdiwg7ItIlIvt1Y8UAh8" 4 "3Pre2" "Peppa_Pig_will_send_the_hamster_a_toy" "Can_you_send_the_hamster_the_toy?" "left" "right" "pretest" "07/08/2019" "10:58" "left" 1 1774.135 1 "24/05/2019" "English" NA NA "male" "Post" "DO" "Pred"
"Co8n5Rdiwg7ItIlIvt1Y8UAh8" 5 "4FillerPre2" "The_king_will_poke_the_jelly_with_the_fork" "Can_you_poke_the_jelly_with_the_fork?" "right" "left" "pretest_filler" "07/08/2019" "10:58" "right" 1 3164.135 1 "24/05/2019" "English" NA NA "male" "Post" "DO" "Pred"
"Co8n5Rdiwg7ItIlIvt1Y8UAh8" 6 "1Pre2" "The_boy_will_bring_the_giraffe_a_cake" "Can_you_bring_the_giraffe_the_cake?" "right" "left" "pretest" "07/08/2019" "10:58" "right" 1 1472.135 1 "24/05/2019" "English" NA NA "male" "Post" "DO" "Pred"
"Co8n5Rdiwg7ItIlIvt1Y8UAh8" 7 "2Pre2" "The_girl_will_throw_the_elephant_a_clock" "Can_you_throw_the_elephant_the_clock?" "right" "left" "pretest" "07/08/2019" "10:58" "right" 1 2554.135 1 "24/05/2019" "English" NA NA "male" "Post" "DO" "Pred"
"Co8n5Rdiwg7ItIlIvt1Y8UAh8" 8 "1FillerPre2" "Peppa_pig_will_bounce_the_ball_with_the_bat" "Can_you_bounce_the_ball_with_the_bat?" "left" "right" "pretest_filler" "07/08/2019" "10:58" "right" 0 1063.135 1 "24/05/2019" "English" NA NA "male" "Post" "DO" "Pred"
"Co8n5Rdiwg7ItIlIvt1Y8UAh8" 9 "4Pre2" "The_king_will_throw_the_turtle_a_squirrel" "Can_you_throw_the_turtle_the_squirrel?" "left" "right" "pretest" "07/08/2019" "10:58" "left" 1 1007.135 1 "24/05/2019" "English" NA NA "male" "Post" "DO" "Pred"
"Co8n5Rdiwg7ItIlIvt1Y8UAh8" 10 "5Pre2" "The_queen_will_send_the_monkey_a_horse" "Can_you_send_the_monkey_the_horse?" "left" "right" "pretest" "07/08/2019" "10:58" "left" 1 1657.135 1 "24/05/2019" "English" NA NA "male" "Post" "DO" "Pred"
"d2mEVFnLVsitRIRfkox2hIgTF" 1 "4fillerpost2" "The_prince_will_move_the_blanket_to_the_sofa" "Can_you_move_the_blanket_to_the_sofa?" "right" "left" "posttest_filler" "07/02/2019" "12:52" "right" 1 5546.135 1 "06/09/2014" "English" NA NA "male" "Pre" "DO" "NonPred"
"d2mEVFnLVsitRIRfkox2hIgTF" 2 "3fillerpost2" "Dora_the_explorer_will_put_the_food_in_the_basket" "Can_you_put_the_food_in_the_basket?" "left" "right" "posttest_filler" "07/02/2019" "12:52" "left" 1 1261.135 1 "06/09/2014" "English" NA NA "male" "Pre" "DO" "NonPred"
"d2mEVFnLVsitRIRfkox2hIgTF" 3 "5post2" "The_prince_will_bring_the_turtle_a_cat" "Can_you_bring_the_turtle_the_cat?" "right" "left" "posttest" "07/02/2019" "12:52" "right" 1 1529.135 1 "06/09/2014" "English" NA NA "male" "Pre" "DO" "NonPred"
"d2mEVFnLVsitRIRfkox2hIgTF" 4 "4Post2" "The_princess_will_send_the_lion_a_crocodile" "Can_you_send_the_lion_the_crocodile?" "left" "right" "posttest" "07/02/2019" "12:52" "left" 1 1709.135 1 "06/09/2014" "English" NA NA "male" "Pre" "DO" "NonPred"
"d2mEVFnLVsitRIRfkox2hIgTF" 5 "2fillerpost2" "Boots_will_clean_the_chair_with_the_sponge" "Can_you_clean_the_chair_with_the_sponge?" "left" "right" "posttest_filler" "07/02/2019" "12:52" "right" 0 1850.135 1 "06/09/2014" "English" NA NA "male" "Pre" "DO" "NonPred"
"d2mEVFnLVsitRIRfkox2hIgTF" 6 "1Post2" "The_boy_will_send_the_tiger_a_present" "Can_you_send_the_tiger_the_present?" "right" "left" "posttest" "07/02/2019" "12:52" "right" 1 1193.135 1 "06/09/2014" "English" NA NA "male" "Pre" "DO" "NonPred"
"d2mEVFnLVsitRIRfkox2hIgTF" 7 "2post2" "The_girl_will_bring_the_horse_an_ice_cream" "Can_you_bring_the_horse_the_ice_cream?" "right" "left" "posttest" "07/02/2019" "12:52" "right" 1 1261.135 1 "06/09/2014" "English" NA NA "male" "Pre" "DO" "NonPred"
"d2mEVFnLVsitRIRfkox2hIgTF" 8 "1fillerpost2" "The_princess_will_tickle_the_teddy_bear_with_the_feather" "Can_you_tickle_the_teddy_bear_with_the_feather?" "right" "left" "posttest_filler" "07/02/2019" "12:52" "right" 1 2090.135 1 "06/09/2014" "English" NA NA "male" "Pre" "DO" "NonPred"
"d2mEVFnLVsitRIRfkox2hIgTF" 9 "6post2" "Dora_the_explorer_will_throw_the_puppy_a_hamster" "Can_you_throw_puppy_the_hamster?" "left" "right" "posttest" "07/02/2019" "12:52" "left" 1 2123.135 1 "06/09/2014" "English" NA NA "male" "Pre" "DO" "NonPred"
"d2mEVFnLVsitRIRfkox2hIgTF" 10 "3post2" "Boots_will_throw_the_giraffe_a_balloon" "Can_you_throw_the_giraffe_the_balloon?" "left" "right" "posttest" "07/02/2019" "12:52" "left" 1 1297.135 1 "06/09/2014" "English" NA NA "male" "Pre" "DO" "NonPred"
"DuCpKX1bRkSFGjBv9kD8PDads" 1 "4fillerpost2" "The_prince_will_move_the_blanket_to_the_sofa" "Can_you_move_the_blanket_to_the_sofa?" "right" "left" "posttest_filler" "6/17/2019" "10:08" "right" 1 1658.135 1 "13/06/2015" "English" NA NA "female" "Post" "PO" "NonPred"
"DuCpKX1bRkSFGjBv9kD8PDads" 2 "3fillerpost2" "Dora_the_explorer_will_put_the_food_in_the_basket" "Can_you_put_the_food_in_the_basket?" "left" "right" "posttest_filler" "6/17/2019" "10:08" "left" 1 2359.135 1 "13/06/15" "English" NA NA "female" "Post" "PO" "NonPred"
"DuCpKX1bRkSFGjBv9kD8PDads" 3 "3Pre2" "Peppa_Pig_will_send_the_hamster_a_toy" "Can_you_send_the_hamster_the_toy?" "right" "left" "pretest" "6/17/2019" "10:08" "left" 0 2316.135 1 "13/06/15" "English" NA NA "female" "Post" "PO" "NonPred"
"DuCpKX1bRkSFGjBv9kD8PDads" 4 "2Pre2" "The_girl_will_throw_the_elephant_a_clock" "Can_you_throw_the_elephant_the_clock?" "right" "left" "pretest" "6/17/2019" "10:08" "left" 0 2525.135 1 "13/06/15" "English" NA NA "female" "Post" "PO" "NonPred"
"DuCpKX1bRkSFGjBv9kD8PDads" 5 "5Pre2" "The_queen_will_send_the_monkey_a_horse" "Can_you_send_the_monkey_the_horse?" "right" "left" "pretest" "6/17/2019" "10:08" "left" 0 3275.135 1 "13/06/15" "English" NA NA "female" "Post" "PO" "NonPred"
"DuCpKX1bRkSFGjBv9kD8PDads" 6 "4Pre2" "The_king_will_throw_the_turtle_a_squirrel" "Can_you_throw_the_turtle_the_squirrel?" "right" "left" "pretest" "6/17/2019" "10:08" "left" 0 1279.135 1 "13/06/15" "English" NA NA "female" "Post" "PO" "NonPred"
"DuCpKX1bRkSFGjBv9kD8PDads" 7 "6Pre2" "Emily_elephant_will_bring_the_mouse_a_rabbit" "Can_you_bring_the_mouse_the_rabbit?" "left" "right" "pretest" "6/17/2019" "10:08" "right" 0 1616.135 1 "13/06/15" "English" NA NA "female" "Post" "PO" "NonPred"
"DuCpKX1bRkSFGjBv9kD8PDads" 8 "1FillerPre2" "Peppa_pig_will_bounce_the_ball_with_the_bat" "Can_you_bounce_the_ball_with_the_bat?" "left" "right" "pretest_filler" "6/17/2019" "10:08" "left" 1 1933.135 1 "13/06/15" "English" NA NA "female" "Post" "PO" "NonPred"
"DuCpKX1bRkSFGjBv9kD8PDads" 9 "4FillerPre2" "The_king_will_poke_the_jelly_with_the_fork" "Can_you_poke_the_jelly_with_the_fork?" "left" "right" "pretest_filler" "6/17/2019" "10:08" "left" 1 1869.135 1 "13/06/15" "English" NA NA "female" "Post" "PO" "NonPred"
"DuCpKX1bRkSFGjBv9kD8PDads" 10 "1Pre2" "The_boy_will_bring_the_giraffe_a_cake" "Can_you_bring_the_giraffe_the_cake?" "left" "right" "pretest" "6/17/2019" "10:08" "right" 0 2102.135 1 "13/06/15" "English" NA NA "female" "Post" "PO" "NonPred"
"E4eEjp8jdT9dLuiNCdUwCyceJ" 1 "4fillerpost2" "The_prince_will_move_the_blanket_to_the_sofa" "Can_you_move_the_blanket_to_the_sofa?" "right" "left" "posttest_filler" "7/17/2019" "13:48" "right" 1 3395.135 1 "06/01/2014" "English" NA NA "female" "Pre" "PO" "Pred"
"E4eEjp8jdT9dLuiNCdUwCyceJ" 2 "3fillerpost2" "Dora_the_explorer_will_put_the_food_in_the_basket" "Can_you_put_the_food_in_the_basket?" "left" "right" "posttest_filler" "7/17/2019" "13:48" "left" 1 2188.135 1 "06/01/2014" "English" NA NA "female" "Pre" "PO" "Pred"
"E4eEjp8jdT9dLuiNCdUwCyceJ" 3 "2post2" "The_girl_will_bring_the_horse_an_ice_cream" "Can_you_bring_the_horse_the_ice_cream?" "left" "right" "posttest" "7/17/2019" "13:48" "left" 1 1741.135 1 "06/01/2014" "English" NA NA "female" "Pre" "PO" "Pred"
"E4eEjp8jdT9dLuiNCdUwCyceJ" 4 "4Post2" "The_princess_will_send_the_lion_a_crocodile" "Can_you_send_the_lion_the_crocodile?" "right" "left" "posttest" "7/17/2019" "13:48" "right" 1 2186.135 1 "06/01/2014" "English" NA NA "female" "Pre" "PO" "Pred"
"E4eEjp8jdT9dLuiNCdUwCyceJ" 5 "1fillerpost2" "The_princess_will_tickle_the_teddy_bear_with_the_feather" "Can_you_tickle_the_teddy_bear_with_the_feather?" "left" "right" "posttest_filler" "7/17/2019" "13:48" "left" 1 3250.135 1 "06/01/2014" "English" NA NA "female" "Pre" "PO" "Pred"
"E4eEjp8jdT9dLuiNCdUwCyceJ" 6 "2fillerpost2" "Boots_will_clean_the_chair_with_the_sponge" "Can_you_clean_the_chair_with_the_sponge?" "right" "left" "posttest_filler" "7/17/2019" "13:48" "right" 1 2845.135 1 "06/01/2014" "English" NA NA "female" "Pre" "PO" "Pred"
"E4eEjp8jdT9dLuiNCdUwCyceJ" 7 "5post2" "The_prince_will_bring_the_turtle_a_cat" "Can_you_bring_the_turtle_the_cat?" "left" "right" "posttest" "7/17/2019" "13:48" "right" 0 1646.135 1 "06/01/2014" "English" NA NA "female" "Pre" "PO" "Pred"
"E4eEjp8jdT9dLuiNCdUwCyceJ" 8 "1Post2" "The_boy_will_send_the_tiger_a_present" "Can_you_send_the_tiger_the_present?" "left" "right" "posttest" "7/17/2019" "13:48" "left" 1 4560.135 1 "06/01/2014" "English" NA NA "female" "Pre" "PO" "Pred"
"E4eEjp8jdT9dLuiNCdUwCyceJ" 9 "3post2" "Boots_will_throw_the_giraffe_a_balloon" "Can_you_throw_the_giraffe_the_balloon?" "right" "left" "posttest" "7/17/2019" "13:48" "right" 1 1226.135 1 "06/01/2014" "English" NA NA "female" "Pre" "PO" "Pred"
"E4eEjp8jdT9dLuiNCdUwCyceJ" 10 "6post2" "Dora_the_explorer_will_throw_the_puppy_a_hamster" "Can_you_throw_puppy_the_hamster?" "right" "left" "posttest" "7/17/2019" "13:48" "right" 1 1961.135 1 "06/01/2014" "English" NA NA "female" "Pre" "PO" "Pred"
"EgtcuHoFCmCQrm1VqcGgZY6JI" 1 "4fillerpost2" "The_prince_will_move_the_blanket_to_the_sofa" "Can_you_move_the_blanket_to_the_sofa?" "right" "left" "posttest_filler" "7/17/2019" "10:58" "right" 1 1836.135 1 "07/11/2014" "English" NA NA "female" "Pre" "DO" "NonPred"
"EgtcuHoFCmCQrm1VqcGgZY6JI" 2 "3fillerpost2" "Dora_the_explorer_will_put_the_food_in_the_basket" "Can_you_put_the_food_in_the_basket?" "left" "right" "posttest_filler" "7/17/2019" "10:58" "left" 1 1426.135 1 "07/11/2014" "English" NA NA "female" "Pre" "DO" "NonPred"
"EgtcuHoFCmCQrm1VqcGgZY6JI" 3 "1Post2" "The_boy_will_send_the_tiger_a_present" "Can_you_send_the_tiger_the_present?" "left" "right" "posttest" "7/17/2019" "10:58" "left" 1 2516.135 1 "07/11/2014" "English" NA NA "female" "Pre" "DO" "NonPred"
"EgtcuHoFCmCQrm1VqcGgZY6JI" 4 "2fillerpost2" "Boots_will_clean_the_chair_with_the_sponge" "Can_you_clean_the_chair_with_the_sponge?" "left" "right" "posttest_filler" "7/17/2019" "10:58" "left" 1 1749.135 1 "07/11/2014" "English" NA NA "female" "Pre" "DO" "NonPred"
"EgtcuHoFCmCQrm1VqcGgZY6JI" 5 "6post2" "Dora_the_explorer_will_throw_the_puppy_a_hamster" "Can_you_throw_puppy_the_hamster?" "right" "left" "posttest" "7/17/2019" "10:58" "left" 0 2217.135 1 "07/11/2014" "English" NA NA "female" "Pre" "DO" "NonPred"
"EgtcuHoFCmCQrm1VqcGgZY6JI" 6 "3post2" "Boots_will_throw_the_giraffe_a_balloon" "Can_you_throw_the_giraffe_the_balloon?" "left" "right" "posttest" "7/17/2019" "10:58" "left" 1 2598.135 1 "07/11/2014" "English" NA NA "female" "Pre" "DO" "NonPred"
"EgtcuHoFCmCQrm1VqcGgZY6JI" 7 "2post2" "The_girl_will_bring_the_horse_an_ice_cream" "Can_you_bring_the_horse_the_ice_cream?" "right" "left" "posttest" "7/17/2019" "10:58" "left" 0 2680.135 1 "07/11/2014" "English" NA NA "female" "Pre" "DO" "NonPred"
"EgtcuHoFCmCQrm1VqcGgZY6JI" 8 "5post2" "The_prince_will_bring_the_turtle_a_cat" "Can_you_bring_the_turtle_the_cat?" "right" "left" "posttest" "7/17/2019" "10:58" "left" 0 2613.135 1 "07/11/2014" "English" NA NA "female" "Pre" "DO" "NonPred"
"EgtcuHoFCmCQrm1VqcGgZY6JI" 9 "4Post2" "The_princess_will_send_the_lion_a_crocodile" "Can_you_send_the_lion_the_crocodile?" "right" "left" "posttest" "7/17/2019" "10:58" "left" 0 2140.135 1 "07/11/2014" "English" NA NA "female" "Pre" "DO" "NonPred"
"EgtcuHoFCmCQrm1VqcGgZY6JI" 10 "1fillerpost2" "The_princess_will_tickle_the_teddy_bear_with_the_feather" "Can_you_tickle_the_teddy_bear_with_the_feather?" "left" "right" "posttest_filler" "7/17/2019" "10:58" "left" 1 1681.135 1 "07/11/2014" "English" NA NA "female" "Pre" "DO" "NonPred"
"eZ7ho2k5zltqLmcrTJh8e9MHq" 1 "4fillerpost2" "The_prince_will_move_the_blanket_to_the_sofa" "Can_you_move_the_blanket_to_the_sofa?" "right" "left" "posttest_filler" "7/1/2019" "11:41" "right" 1 5485.135 1 "21/6/15" "English" NA NA "male" "Post" "PO" "Pred"
"eZ7ho2k5zltqLmcrTJh8e9MHq" 2 "3fillerpost2" "Dora_the_explorer_will_put_the_food_in_the_basket" "Can_you_put_the_food_in_the_basket?" "left" "right" "posttest_filler" "7/1/2019" "11:41" "left" 1 2318.135 1 "21/6/15" "English" NA NA "male" "Post" "PO" "Pred"
"eZ7ho2k5zltqLmcrTJh8e9MHq" 3 "3Pre2" "Peppa_Pig_will_send_the_hamster_a_toy" "Can_you_send_the_hamster_the_toy?" "right" "left" "pretest" "7/1/2019" "11:41" "left" 0 2222.135 1 "21/6/15" "English" NA NA "male" "Post" "PO" "Pred"
"eZ7ho2k5zltqLmcrTJh8e9MHq" 4 "2Pre2" "The_girl_will_throw_the_elephant_a_clock" "Can_you_throw_the_elephant_the_clock?" "right" "left" "pretest" "7/1/2019" "11:41" "left" 0 3535.135 1 "21/6/15" "English" NA NA "male" "Post" "PO" "Pred"
"eZ7ho2k5zltqLmcrTJh8e9MHq" 5 "6Pre2" "Emily_elephant_will_bring_the_mouse_a_rabbit" "Can_you_bring_the_mouse_the_rabbit?" "left" "right" "pretest" "7/1/2019" "11:41" "right" 0 1727.135 1 "21/6/15" "English" NA NA "male" "Post" "PO" "Pred"
"eZ7ho2k5zltqLmcrTJh8e9MHq" 6 "1FillerPre2" "Peppa_pig_will_bounce_the_ball_with_the_bat" "Can_you_bounce_the_ball_with_the_bat?" "right" "left" "pretest_filler" "7/1/2019" "11:41" "right" 1 3986.135 1 "21/6/15" "English" NA NA "male" "Post" "PO" "Pred"
"eZ7ho2k5zltqLmcrTJh8e9MHq" 7 "4FillerPre2" "The_king_will_poke_the_jelly_with_the_fork" "Can_you_poke_the_jelly_with_the_fork?" "right" "left" "pretest_filler" "7/1/2019" "11:41" "right" 1 2624.135 1 "21/6/15" "English" NA NA "male" "Post" "PO" "Pred"
"eZ7ho2k5zltqLmcrTJh8e9MHq" 8 "5Pre2" "The_queen_will_send_the_monkey_a_horse" "Can_you_send_the_monkey_the_horse?" "left" "right" "pretest" "7/1/2019" "11:41" "right" 0 3397.135 1 "21/6/15" "English" NA NA "male" "Post" "PO" "Pred"
"eZ7ho2k5zltqLmcrTJh8e9MHq" 9 "4Pre2" "The_king_will_throw_the_turtle_a_squirrel" "Can_you_throw_the_turtle_the_squirrel?" "left" "right" "pretest" "7/1/2019" "11:41" "right" 0 5091.135 1 "21/6/15" "English" NA NA "male" "Post" "PO" "Pred"
"eZ7ho2k5zltqLmcrTJh8e9MHq" 10 "1Pre2" "The_boy_will_bring_the_giraffe_a_cake" "Can_you_bring_the_giraffe_the_cake?" "left" "right" "pretest" "7/1/2019" "11:41" "right" 0 2479.135 1 "21/6/15" "English" NA NA "male" "Post" "PO" "Pred"
"f42rNTils7J01GqEXJ97wb5Sp" 1 "4fillerpost2" "The_prince_will_move_the_blanket_to_the_sofa" "Can_you_move_the_blanket_to_the_sofa?" "right" "left" "posttest_filler" "7/17/2019" "09:34" "right" 1 1393.135 1 "18/02/15" "English" NA NA "male" "Post" "DO" "NonPred"
"f42rNTils7J01GqEXJ97wb5Sp" 2 "3fillerpost2" "Dora_the_explorer_will_put_the_food_in_the_basket" "Can_you_put_the_food_in_the_basket?" "left" "right" "posttest_filler" "7/17/2019" "09:34" "left" 1 2188.135 1 "18/02/15" "English" NA NA "male" "Post" "DO" "NonPred"
"f42rNTils7J01GqEXJ97wb5Sp" 3 "4Pre2" "The_king_will_throw_the_turtle_a_squirrel" "Can_you_throw_the_turtle_the_squirrel?" "right" "left" "pretest" "7/17/2019" "09:34" "left" 0 6723.135 1 "18/02/15" "English" NA NA "male" "Post" "DO" "NonPred"
"f42rNTils7J01GqEXJ97wb5Sp" 4 "4FillerPre2" "The_king_will_poke_the_jelly_with_the_fork" "Can_you_poke_the_jelly_with_the_fork?" "right" "left" "pretest_filler" "7/17/2019" "09:34" "left" 0 1807.135 1 "18/02/15" "English" NA NA "male" "Post" "DO" "NonPred"
"f42rNTils7J01GqEXJ97wb5Sp" 5 "1FillerPre2" "Peppa_pig_will_bounce_the_ball_with_the_bat" "Can_you_bounce_the_ball_with_the_bat?" "right" "left" "pretest_filler" "7/17/2019" "09:34" "left" 0 1680.135 1 "18/02/15" "English" NA NA "male" "Post" "DO" "NonPred"
"f42rNTils7J01GqEXJ97wb5Sp" 6 "1Pre2" "The_boy_will_bring_the_giraffe_a_cake" "Can_you_bring_the_giraffe_the_cake?" "left" "right" "pretest" "7/17/2019" "09:34" "right" 0 2971.135 1 "18/02/15" "English" NA NA "male" "Post" "DO" "NonPred"
"f42rNTils7J01GqEXJ97wb5Sp" 7 "5Pre2" "The_queen_will_send_the_monkey_a_horse" "Can_you_send_the_monkey_the_horse?" "left" "right" "pretest" "7/17/2019" "09:34" "right" 0 1987.135 1 "18/02/15" "English" NA NA "male" "Post" "DO" "NonPred"
"f42rNTils7J01GqEXJ97wb5Sp" 8 "2Pre2" "The_girl_will_throw_the_elephant_a_clock" "Can_you_throw_the_elephant_the_clock?" "left" "right" "pretest" "7/17/2019" "09:34" "right" 0 5533.135 1 "18/02/15" "English" NA NA "male" "Post" "DO" "NonPred"
"f42rNTils7J01GqEXJ97wb5Sp" 9 "3Pre2" "Peppa_Pig_will_send_the_hamster_a_toy" "Can_you_send_the_hamster_the_toy?" "right" "left" "pretest" "7/17/2019" "09:34" "left" 0 4358.135 1 "18/02/15" "English" NA NA "male" "Post" "DO" "NonPred"
"f42rNTils7J01GqEXJ97wb5Sp" 10 "6Pre2" "Emily_elephant_will_bring_the_mouse_a_rabbit" "Can_you_bring_the_mouse_the_rabbit?" "left" "right" "pretest" "7/17/2019" "09:34" "left" 1 2395.135 1 "18/02/15" "English" NA NA "male" "Post" "DO" "NonPred"
"FdODjTefLNBHciMwmAY0fzy0s" 1 "4fillerpost2" "The_prince_will_move_the_blanket_to_the_sofa" "Can_you_move_the_blanket_to_the_sofa?" "right" "left" "posttest_filler" "7/18/2019" "13:12" "right" 1 4462.135 1 "10/05/15" "English" NA NA "female" "Post" "DO" "Pred"
"FdODjTefLNBHciMwmAY0fzy0s" 2 "3fillerpost2" "Dora_the_explorer_will_put_the_food_in_the_basket" "Can_you_put_the_food_in_the_basket?" "left" "right" "posttest_filler" "7/18/2019" "13:12" "left" 1 2692.135 1 "10/05/15" "English" NA NA "female" "Post" "DO" "Pred"
"FdODjTefLNBHciMwmAY0fzy0s" 3 "4FillerPre2" "The_king_will_poke_the_jelly_with_the_fork" "Can_you_poke_the_jelly_with_the_fork?" "left" "right" "pretest_filler" "7/18/2019" "13:12" "left" 1 5081.135 1 "10/05/15" "English" NA NA "female" "Post" "DO" "Pred"
"FdODjTefLNBHciMwmAY0fzy0s" 4 "5Pre2" "The_queen_will_send_the_monkey_a_horse" "Can_you_send_the_monkey_the_horse?" "left" "right" "pretest" "7/18/2019" "13:12" "left" 1 3263.135 1 "10/05/15" "English" NA NA "female" "Post" "DO" "Pred"
"FdODjTefLNBHciMwmAY0fzy0s" 5 "4Pre2" "The_king_will_throw_the_turtle_a_squirrel" "Can_you_throw_the_turtle_the_squirrel?" "left" "right" "pretest" "7/18/2019" "13:12" "left" 1 2576.135 1 "10/05/15" "English" NA NA "female" "Post" "DO" "Pred"
"FdODjTefLNBHciMwmAY0fzy0s" 6 "3Pre2" "Peppa_Pig_will_send_the_hamster_a_toy" "Can_you_send_the_hamster_the_toy?" "right" "left" "pretest" "7/18/2019" "13:12" "right" 1 4343.135 1 "10/05/15" "English" NA NA "female" "Post" "DO" "Pred"
"FdODjTefLNBHciMwmAY0fzy0s" 7 "1Pre2" "The_boy_will_bring_the_giraffe_a_cake" "Can_you_bring_the_giraffe_the_cake?" "right" "left" "pretest" "7/18/2019" "13:12" "right" 1 4741.135 1 "10/05/15" "English" NA NA "female" "Post" "DO" "Pred"
"FdODjTefLNBHciMwmAY0fzy0s" 8 "2Pre2" "The_girl_will_throw_the_elephant_a_clock" "Can_you_throw_the_elephant_the_clock?" "left" "right" "pretest" "7/18/2019" "13:12" "left" 1 2512.135 1 "10/05/15" "English" NA NA "female" "Post" "DO" "Pred"
"FdODjTefLNBHciMwmAY0fzy0s" 9 "6Pre2" "Emily_elephant_will_bring_the_mouse_a_rabbit" "Can_you_bring_the_mouse_the_rabbit?" "right" "left" "pretest" "7/18/2019" "13:12" "left" 0 6232.135 1 "10/05/15" "English" NA NA "female" "Post" "DO" "Pred"
"FdODjTefLNBHciMwmAY0fzy0s" 10 "1FillerPre2" "Peppa_pig_will_bounce_the_ball_with_the_bat" "Can_you_bounce_the_ball_with_the_bat?" "right" "left" "pretest_filler" "7/18/2019" "13:12" "left" 0 2960.135 1 "10/05/15" "English" NA NA "female" "Post" "DO" "Pred"
"FjsXiQzIKRCaqW3ZWdhmDY6qC" 1 "4fillerpost2" "The_prince_will_move_the_blanket_to_the_sofa" "Can_you_move_the_blanket_to_the_sofa?" "right" "left" "posttest_filler" "7/18/2019" "09:36" "right" 1 9598.135 1 "05/04/15" "English" NA NA "female" "Pre" "DO" "NonPred"
"FjsXiQzIKRCaqW3ZWdhmDY6qC" 2 "3fillerpost2" "Dora_the_explorer_will_put_the_food_in_the_basket" "Can_you_put_the_food_in_the_basket?" "left" "right" "posttest_filler" "7/18/2019" "09:36" "left" 1 2275.135 1 "05/04/15" "English" NA NA "female" "Pre" "DO" "NonPred"
"FjsXiQzIKRCaqW3ZWdhmDY6qC" 3 "5post2" "The_prince_will_bring_the_turtle_a_cat" "Can_you_bring_the_turtle_the_cat?" "right" "left" "posttest" "7/18/2019" "09:36" "left" 0 4388.135 1 "05/04/15" "English" NA NA "female" "Pre" "DO" "NonPred"
"FjsXiQzIKRCaqW3ZWdhmDY6qC" 4 "2post2" "The_girl_will_bring_the_horse_an_ice_cream" "Can_you_bring_the_horse_the_ice_cream?" "left" "right" "posttest" "7/18/2019" "09:36" "left" 1 2665.135 1 "05/04/15" "English" NA NA "female" "Pre" "DO" "NonPred"
"FjsXiQzIKRCaqW3ZWdhmDY6qC" 5 "2fillerpost2" "Boots_will_clean_the_chair_with_the_sponge" "Can_you_clean_the_chair_with_the_sponge?" "right" "left" "posttest_filler" "7/18/2019" "09:36" "right" 1 1507.135 1 "05/04/15" "English" NA NA "female" "Pre" "DO" "NonPred"
"FjsXiQzIKRCaqW3ZWdhmDY6qC" 6 "4Post2" "The_princess_will_send_the_lion_a_crocodile" "Can_you_send_the_lion_the_crocodile?" "left" "right" "posttest" "7/18/2019" "09:36" "right" 0 2970.135 1 "05/04/15" "English" NA NA "female" "Pre" "DO" "NonPred"
"FjsXiQzIKRCaqW3ZWdhmDY6qC" 7 "1fillerpost2" "The_princess_will_tickle_the_teddy_bear_with_the_feather" "Can_you_tickle_the_teddy_bear_with_the_feather?" "left" "right" "posttest_filler" "7/18/2019" "09:36" "left" 1 2507.135 1 "05/04/15" "English" NA NA "female" "Pre" "DO" "NonPred"
"FjsXiQzIKRCaqW3ZWdhmDY6qC" 8 "3post2" "Boots_will_throw_the_giraffe_a_balloon" "Can_you_throw_the_giraffe_the_balloon?" "left" "right" "posttest" "7/18/2019" "09:36" "right" 0 1495.135 1 "05/04/15" "English" NA NA "female" "Pre" "DO" "NonPred"
"FjsXiQzIKRCaqW3ZWdhmDY6qC" 9 "1Post2" "The_boy_will_send_the_tiger_a_present" "Can_you_send_the_tiger_the_present?" "right" "left" "posttest" "7/18/2019" "09:36" "right" 1 3025.135 1 "05/04/15" "English" NA NA "female" "Pre" "DO" "NonPred"
"FjsXiQzIKRCaqW3ZWdhmDY6qC" 10 "6post2" "Dora_the_explorer_will_throw_the_puppy_a_hamster" "Can_you_throw_puppy_the_hamster?" "right" "left" "posttest" "7/18/2019" "09:36" "right" 1 2260.135 1 "05/04/15" "English" NA NA "female" "Pre" "DO" "NonPred"
"FwqPAwsJHhtqk1alRgW3QGzE2" 1 "4fillerpost2" "The_prince_will_move_the_blanket_to_the_sofa" "Can_you_move_the_blanket_to_the_sofa?" "right" "left" "posttest_filler" "7/24/2019" "11:05" "right" 1 1847.135 1 "02/04/2015" "English" NA NA "male" "Post" "PO" "NonPred"
"FwqPAwsJHhtqk1alRgW3QGzE2" 2 "3fillerpost2" "Dora_the_explorer_will_put_the_food_in_the_basket" "Can_you_put_the_food_in_the_basket?" "left" "right" "posttest_filler" "7/24/2019" "11:05" "left" 1 2332.135 1 "02/04/2015" "English" NA NA "male" "Post" "PO" "NonPred"
"FwqPAwsJHhtqk1alRgW3QGzE2" 3 "1FillerPre2" "Peppa_pig_will_bounce_the_ball_with_the_bat" "Can_you_bounce_the_ball_with_the_bat?" "right" "left" "pretest_filler" "7/24/2019" "11:05" "right" 1 10935.135 1 "02/04/2015" "English" NA NA "male" "Post" "PO" "NonPred"
"FwqPAwsJHhtqk1alRgW3QGzE2" 4 "4Pre2" "The_king_will_throw_the_turtle_a_squirrel" "Can_you_throw_the_turtle_the_squirrel?" "left" "right" "pretest" "7/24/2019" "11:05" "left" 1 2375.135 1 "02/04/2015" "English" NA NA "male" "Post" "PO" "NonPred"
"FwqPAwsJHhtqk1alRgW3QGzE2" 5 "1Pre2" "The_boy_will_bring_the_giraffe_a_cake" "Can_you_bring_the_giraffe_the_cake?" "right" "left" "pretest" "7/24/2019" "11:05" "right" 1 3672.135 1 "02/04/2015" "English" NA NA "male" "Post" "PO" "NonPred"
"FwqPAwsJHhtqk1alRgW3QGzE2" 6 "2Pre2" "The_girl_will_throw_the_elephant_a_clock" "Can_you_throw_the_elephant_the_clock?" "right" "left" "pretest" "7/24/2019" "11:05" "right" 1 1085.135 1 "02/04/2015" "English" NA NA "male" "Post" "PO" "NonPred"
"FwqPAwsJHhtqk1alRgW3QGzE2" 7 "4FillerPre2" "The_king_will_poke_the_jelly_with_the_fork" "Can_you_poke_the_jelly_with_the_fork?" "left" "right" "pretest_filler" "7/24/2019" "11:05" "left" 1 4769.135 1 "02/04/2015" "English" NA NA "male" "Post" "PO" "NonPred"
"FwqPAwsJHhtqk1alRgW3QGzE2" 8 "3Pre2" "Peppa_Pig_will_send_the_hamster_a_toy" "Can_you_send_the_hamster_the_toy?" "left" "right" "pretest" "7/24/2019" "11:05" "left" 1 2294.135 1 "02/04/2015" "English" NA NA "male" "Post" "PO" "NonPred"
"FwqPAwsJHhtqk1alRgW3QGzE2" 9 "6Pre2" "Emily_elephant_will_bring_the_mouse_a_rabbit" "Can_you_bring_the_mouse_the_rabbit?" "left" "right" "pretest" "7/24/2019" "11:05" "left" 1 676.135 1 "02/04/2015" "English" NA NA "male" "Post" "PO" "NonPred"
"FwqPAwsJHhtqk1alRgW3QGzE2" 10 "5Pre2" "The_queen_will_send_the_monkey_a_horse" "Can_you_send_the_monkey_the_horse?" "right" "left" "pretest" "7/24/2019" "11:05" "right" 1 1647.135 1 "02/04/2015" "English" NA NA "male" "Post" "PO" "NonPred"
"g7Fmlktygd1UIcn5PL2AFBsjm" 1 "4fillerpost2" "The_prince_will_move_the_blanket_to_the_sofa" "Can_you_move_the_blanket_to_the_sofa?" "right" "left" "posttest_filler" "7/1/2019" "13:08" "right" 1 1482.135 1 "30/3/15" "English" NA NA "male" "Post" "DO" "NonPred"
"g7Fmlktygd1UIcn5PL2AFBsjm" 2 "3fillerpost2" "Dora_the_explorer_will_put_the_food_in_the_basket" "Can_you_put_the_food_in_the_basket?" "left" "right" "posttest_filler" "7/1/2019" "13:08" "left" 1 2030.135 1 "30/3/15" "English" NA NA "male" "Post" "DO" "NonPred"
"g7Fmlktygd1UIcn5PL2AFBsjm" 3 "1FillerPre2" "Peppa_pig_will_bounce_the_ball_with_the_bat" "Can_you_bounce_the_ball_with_the_bat?" "left" "right" "pretest_filler" "7/1/2019" "13:08" "right" 0 1573.135 1 "30/3/15" "English" NA NA "male" "Post" "DO" "NonPred"
"g7Fmlktygd1UIcn5PL2AFBsjm" 4 "5Pre2" "The_queen_will_send_the_monkey_a_horse" "Can_you_send_the_monkey_the_horse?" "right" "left" "pretest" "7/1/2019" "13:08" "left" 0 2433.135 1 "30/3/15" "English" NA NA "male" "Post" "DO" "NonPred"
"g7Fmlktygd1UIcn5PL2AFBsjm" 5 "3Pre2" "Peppa_Pig_will_send_the_hamster_a_toy" "Can_you_send_the_hamster_the_toy?" "left" "right" "pretest" "7/1/2019" "13:08" "left" 1 1790.135 1 "30/3/15" "English" NA NA "male" "Post" "DO" "NonPred"
"g7Fmlktygd1UIcn5PL2AFBsjm" 6 "4FillerPre2" "The_king_will_poke_the_jelly_with_the_fork" "Can_you_poke_the_jelly_with_the_fork?" "right" "left" "pretest_filler" "7/1/2019" "13:08" "right" 1 2309.135 1 "30/3/15" "English" NA NA "male" "Post" "DO" "NonPred"
"g7Fmlktygd1UIcn5PL2AFBsjm" 7 "4Pre2" "The_king_will_throw_the_turtle_a_squirrel" "Can_you_throw_the_turtle_the_squirrel?" "right" "left" "pretest" "7/1/2019" "13:08" "right" 1 2679.135 1 "30/3/15" "English" NA NA "male" "Post" "DO" "NonPred"
"g7Fmlktygd1UIcn5PL2AFBsjm" 8 "2Pre2" "The_girl_will_throw_the_elephant_a_clock" "Can_you_throw_the_elephant_the_clock?" "left" "right" "pretest" "7/1/2019" "13:08" "left" 1 2388.135 1 "30/3/15" "English" NA NA "male" "Post" "DO" "NonPred"
"g7Fmlktygd1UIcn5PL2AFBsjm" 9 "1Pre2" "The_boy_will_bring_the_giraffe_a_cake" "Can_you_bring_the_giraffe_the_cake?" "right" "left" "pretest" "7/1/2019" "13:08" "right" 1 1175.135 1 "30/3/15" "English" NA NA "male" "Post" "DO" "NonPred"
"g7Fmlktygd1UIcn5PL2AFBsjm" 10 "6Pre2" "Emily_elephant_will_bring_the_mouse_a_rabbit" "Can_you_bring_the_mouse_the_rabbit?" "left" "right" "pretest" "7/1/2019" "13:08" "left" 1 2826.135 1 "30/3/15" "English" NA NA "male" "Post" "DO" "NonPred"
"GQLgHmxXdeTrRxApGRccaywgx" 1 "4fillerpost2" "The_prince_will_move_the_blanket_to_the_sofa" "Can_you_move_the_blanket_to_the_sofa?" "right" "left" "posttest_filler" "6/25/2019" "09:21" "left" 0 3989.135 1 "7/9/14" "English" NA NA "male" "Pre" "PO" "NonPred"
"GQLgHmxXdeTrRxApGRccaywgx" 2 "3fillerpost2" "Dora_the_explorer_will_put_the_food_in_the_basket" "Can_you_put_the_food_in_the_basket?" "left" "right" "posttest_filler" "6/25/2019" "09:21" "left" 1 2011.135 1 "7/9/14" "English" NA NA "male" "Pre" "PO" "NonPred"
"GQLgHmxXdeTrRxApGRccaywgx" 3 "6post2" "Dora_the_explorer_will_throw_the_puppy_a_hamster" "Can_you_throw_puppy_the_hamster?" "left" "right" "posttest" "6/25/2019" "09:21" "right" 0 4018.135 1 "7/9/14" "English" NA NA "male" "Pre" "PO" "NonPred"
"GQLgHmxXdeTrRxApGRccaywgx" 4 "5post2" "The_prince_will_bring_the_turtle_a_cat" "Can_you_bring_the_turtle_the_cat?" "right" "left" "posttest" "6/25/2019" "09:21" "left" 0 1634.135 1 "7/9/14" "English" NA NA "male" "Pre" "PO" "NonPred"
"GQLgHmxXdeTrRxApGRccaywgx" 5 "4Post2" "The_princess_will_send_the_lion_a_crocodile" "Can_you_send_the_lion_the_crocodile?" "left" "right" "posttest" "6/25/2019" "09:21" "right" 0 4601.135 1 "7/9/14" "English" NA NA "male" "Pre" "PO" "NonPred"
"GQLgHmxXdeTrRxApGRccaywgx" 6 "1Post2" "The_boy_will_send_the_tiger_a_present" "Can_you_send_the_tiger_the_present?" "right" "left" "posttest" "6/25/2019" "09:21" "left" 0 1368.135 1 "7/9/14" "English" NA NA "male" "Pre" "PO" "NonPred"
"GQLgHmxXdeTrRxApGRccaywgx" 7 "2post2" "The_girl_will_bring_the_horse_an_ice_cream" "Can_you_bring_the_horse_the_ice_cream?" "right" "left" "posttest" "6/25/2019" "09:21" "left" 0 815.135 1 "7/9/14" "English" NA NA "male" "Pre" "PO" "NonPred"
"GQLgHmxXdeTrRxApGRccaywgx" 8 "3post2" "Boots_will_throw_the_giraffe_a_balloon" "Can_you_throw_the_giraffe_the_balloon?" "right" "left" "posttest" "6/25/2019" "09:21" "left" 0 1223.135 1 "7/9/14" "English" NA NA "male" "Pre" "PO" "NonPred"
"GQLgHmxXdeTrRxApGRccaywgx" 9 "1fillerpost2" "The_princess_will_tickle_the_teddy_bear_with_the_feather" "Can_you_tickle_the_teddy_bear_with_the_feather?" "left" "right" "posttest_filler" "6/25/2019" "09:21" "left" 1 2033.135 1 "7/9/14" "English" NA NA "male" "Pre" "PO" "NonPred"
"GQLgHmxXdeTrRxApGRccaywgx" 10 "2fillerpost2" "Boots_will_clean_the_chair_with_the_sponge" "Can_you_clean_the_chair_with_the_sponge?" "left" "right" "posttest_filler" "6/25/2019" "09:21" "left" 1 4001.135 1 "7/9/14" "English" NA NA "male" "Pre" "PO" "NonPred"
"H9yGpPYpoulJelMr19gxSWT9I" 1 "4fillerpost2" "The_prince_will_move_the_blanket_to_the_sofa" "Can_you_move_the_blanket_to_the_sofa?" "right" "left" "posttest_filler" "6/25/2019" "11:54" "right" 1 2130.135 1 "20/2/15" "English" NA NA "female" "Post" "PO" "Pred"
"H9yGpPYpoulJelMr19gxSWT9I" 2 "3fillerpost2" "Dora_the_explorer_will_put_the_food_in_the_basket" "Can_you_put_the_food_in_the_basket?" "left" "right" "posttest_filler" "6/25/2019" "11:54" "left" 1 4108.135 1 "20/2/15" "English" NA NA "female" "Post" "PO" "Pred"
"H9yGpPYpoulJelMr19gxSWT9I" 3 "2Pre2" "The_girl_will_throw_the_elephant_a_clock" "Can_you_throw_the_elephant_the_clock?" "right" "left" "pretest" "6/25/2019" "11:54" "left" 0 3578.135 1 "20/2/15" "English" NA NA "female" "Post" "PO" "Pred"
"H9yGpPYpoulJelMr19gxSWT9I" 4 "4FillerPre2" "The_king_will_poke_the_jelly_with_the_fork" "Can_you_poke_the_jelly_with_the_fork?" "left" "right" "pretest_filler" "6/25/2019" "11:54" "left" 1 1918.135 1 "20/2/15" "English" NA NA "female" "Post" "PO" "Pred"
"H9yGpPYpoulJelMr19gxSWT9I" 5 "1Pre2" "The_boy_will_bring_the_giraffe_a_cake" "Can_you_bring_the_giraffe_the_cake?" "left" "right" "pretest" "6/25/2019" "11:54" "right" 0 10763.135 1 "20/2/15" "English" NA NA "female" "Post" "PO" "Pred"
"H9yGpPYpoulJelMr19gxSWT9I" 6 "6Pre2" "Emily_elephant_will_bring_the_mouse_a_rabbit" "Can_you_bring_the_mouse_the_rabbit?" "right" "left" "pretest" "6/25/2019" "11:54" "left" 0 1892.135 1 "20/2/15" "English" NA NA "female" "Post" "PO" "Pred"
"H9yGpPYpoulJelMr19gxSWT9I" 7 "1FillerPre2" "Peppa_pig_will_bounce_the_ball_with_the_bat" "Can_you_bounce_the_ball_with_the_bat?" "left" "right" "pretest_filler" "6/25/2019" "11:54" "right" 0 2390.135 1 "20/2/15" "English" NA NA "female" "Post" "PO" "Pred"
"H9yGpPYpoulJelMr19gxSWT9I" 8 "3Pre2" "Peppa_Pig_will_send_the_hamster_a_toy" "Can_you_send_the_hamster_the_toy?" "right" "left" "pretest" "6/25/2019" "11:54" "right" 1 1862.135 1 "20/2/15" "English" NA NA "female" "Post" "PO" "Pred"
"H9yGpPYpoulJelMr19gxSWT9I" 9 "4Pre2" "The_king_will_throw_the_turtle_a_squirrel" "Can_you_throw_the_turtle_the_squirrel?" "right" "left" "pretest" "6/25/2019" "11:54" "left" 0 2681.135 1 "20/2/15" "English" NA NA "female" "Post" "PO" "Pred"
"H9yGpPYpoulJelMr19gxSWT9I" 10 "5Pre2" "The_queen_will_send_the_monkey_a_horse" "Can_you_send_the_monkey_the_horse?" "left" "right" "pretest" "6/25/2019" "11:54" "right" 0 1813.135 1 "20/2/15" "English" NA NA "female" "Post" "PO" "Pred"
"HyCwP4l2LpCGQwMyERezuEdsp" 1 "4fillerpost2" "The_prince_will_move_the_blanket_to_the_sofa" "Can_you_move_the_blanket_to_the_sofa?" "right" "left" "posttest_filler" "6/25/2019" "11:12" "right" 1 2048.135 1 "28/6/15" "English" NA NA "male" "Post" "DO" "NonPred"
"HyCwP4l2LpCGQwMyERezuEdsp" 2 "3fillerpost2" "Dora_the_explorer_will_put_the_food_in_the_basket" "Can_you_put_the_food_in_the_basket?" "left" "right" "posttest_filler" "6/25/2019" "11:12" "left" 1 2047.135 1 "28/6/15" "English" NA NA "male" "Post" "DO" "NonPred"
"HyCwP4l2LpCGQwMyERezuEdsp" 3 "2Pre2" "The_girl_will_throw_the_elephant_a_clock" "Can_you_throw_the_elephant_the_clock?" "right" "left" "pretest" "6/25/2019" "11:12" "right" 1 6221.135 1 "28/6/15" "English" NA NA "male" "Post" "DO" "NonPred"
"HyCwP4l2LpCGQwMyERezuEdsp" 4 "3Pre2" "Peppa_Pig_will_send_the_hamster_a_toy" "Can_you_send_the_hamster_the_toy?" "right" "left" "pretest" "6/25/2019" "11:12" "right" 1 1110.135 1 "28/6/15" "English" NA NA "male" "Post" "DO" "NonPred"
"HyCwP4l2LpCGQwMyERezuEdsp" 5 "4Pre2" "The_king_will_throw_the_turtle_a_squirrel" "Can_you_throw_the_turtle_the_squirrel?" "left" "right" "pretest" "6/25/2019" "11:12" "right" 0 3992.135 1 "28/6/15" "English" NA NA "male" "Post" "DO" "NonPred"
"HyCwP4l2LpCGQwMyERezuEdsp" 6 "1FillerPre2" "Peppa_pig_will_bounce_the_ball_with_the_bat" "Can_you_bounce_the_ball_with_the_bat?" "left" "right" "pretest_filler" "6/25/2019" "11:12" "right" 0 1210.135 1 "28/6/15" "English" NA NA "male" "Post" "DO" "NonPred"
"HyCwP4l2LpCGQwMyERezuEdsp" 7 "5Pre2" "The_queen_will_send_the_monkey_a_horse" "Can_you_send_the_monkey_the_horse?" "right" "left" "pretest" "6/25/2019" "11:12" "right" 1 1656.135 1 "28/6/15" "English" NA NA "male" "Post" "DO" "NonPred"
"HyCwP4l2LpCGQwMyERezuEdsp" 8 "4FillerPre2" "The_king_will_poke_the_jelly_with_the_fork" "Can_you_poke_the_jelly_with_the_fork?" "left" "right" "pretest_filler" "6/25/2019" "11:12" "left" 1 5047.135 1 "28/6/15" "English" NA NA "male" "Post" "DO" "NonPred"
"HyCwP4l2LpCGQwMyERezuEdsp" 9 "1Pre2" "The_boy_will_bring_the_giraffe_a_cake" "Can_you_bring_the_giraffe_the_cake?" "left" "right" "pretest" "6/25/2019" "11:12" "left" 1 4132.135 1 "28/6/15" "English" NA NA "male" "Post" "DO" "NonPred"
"HyCwP4l2LpCGQwMyERezuEdsp" 10 "6Pre2" "Emily_elephant_will_bring_the_mouse_a_rabbit" "Can_you_bring_the_mouse_the_rabbit?" "right" "left" "pretest" "6/25/2019" "11:12" "right" 1 2147.135 1 "28/6/15" "English" NA NA "male" "Post" "DO" "NonPred"
"IJRTd7WULy3UcrqSAj58fK5Hk" 1 "4fillerpost2" "The_prince_will_move_the_blanket_to_the_sofa" "Can_you_move_the_blanket_to_the_sofa?" "right" "left" "posttest_filler" "7/18/2019" "14:23" "right" 1 4966.135 1 "02/10/14" "English" NA NA "female" "Post" "PO" "NonPred"
"IJRTd7WULy3UcrqSAj58fK5Hk" 2 "3fillerpost2" "Dora_the_explorer_will_put_the_food_in_the_basket" "Can_you_put_the_food_in_the_basket?" "left" "right" "posttest_filler" "7/18/2019" "14:23" "left" 1 3875.135 1 "02/10/14" "English" NA NA "female" "Post" "PO" "NonPred"
"IJRTd7WULy3UcrqSAj58fK5Hk" 3 "4FillerPre2" "The_king_will_poke_the_jelly_with_the_fork" "Can_you_poke_the_jelly_with_the_fork?" "right" "left" "pretest_filler" "7/18/2019" "14:23" "right" 1 18878.135 1 "02/10/14" "English" NA NA "female" "Post" "PO" "NonPred"
"IJRTd7WULy3UcrqSAj58fK5Hk" 4 "1FillerPre2" "Peppa_pig_will_bounce_the_ball_with_the_bat" "Can_you_bounce_the_ball_with_the_bat?" "right" "left" "pretest_filler" "7/18/2019" "14:23" "right" 1 12240.135 1 "02/10/14" "English" NA NA "female" "Post" "PO" "NonPred"
"IJRTd7WULy3UcrqSAj58fK5Hk" 5 "2Pre2" "The_girl_will_throw_the_elephant_a_clock" "Can_you_throw_the_elephant_the_clock?" "left" "right" "pretest" "7/18/2019" "14:23" "left" 1 1767.135 1 "02/10/14" "English" NA NA "female" "Post" "PO" "NonPred"
"IJRTd7WULy3UcrqSAj58fK5Hk" 6 "1Pre2" "The_boy_will_bring_the_giraffe_a_cake" "Can_you_bring_the_giraffe_the_cake?" "right" "left" "pretest" "7/18/2019" "14:23" "right" 1 8296.135 1 "02/10/14" "English" NA NA "female" "Post" "PO" "NonPred"
"IJRTd7WULy3UcrqSAj58fK5Hk" 7 "4Pre2" "The_king_will_throw_the_turtle_a_squirrel" "Can_you_throw_the_turtle_the_squirrel?" "right" "left" "pretest" "7/18/2019" "14:23" "right" 1 7955.135 1 "02/10/14" "English" NA NA "female" "Post" "PO" "NonPred"
"IJRTd7WULy3UcrqSAj58fK5Hk" 8 "3Pre2" "Peppa_Pig_will_send_the_hamster_a_toy" "Can_you_send_the_hamster_the_toy?" "left" "right" "pretest" "7/18/2019" "14:23" "right" 0 1502.135 1 "02/10/14" "English" NA NA "female" "Post" "PO" "NonPred"
"IJRTd7WULy3UcrqSAj58fK5Hk" 9 "6Pre2" "Emily_elephant_will_bring_the_mouse_a_rabbit" "Can_you_bring_the_mouse_the_rabbit?" "left" "right" "pretest" "7/18/2019" "14:23" "right" 0 4718.135 1 "02/10/14" "English" NA NA "female" "Post" "PO" "NonPred"
"IJRTd7WULy3UcrqSAj58fK5Hk" 10 "5Pre2" "The_queen_will_send_the_monkey_a_horse" "Can_you_send_the_monkey_the_horse?" "left" "right" "pretest" "7/18/2019" "14:23" "right" 0 4631.135 1 "02/10/14" "English" NA NA "female" "Post" "PO" "NonPred"
"iLumJFeKJT74QSXxlJLJx63CE" 1 "4fillerpost2" "The_prince_will_move_the_blanket_to_the_sofa" "Can_you_move_the_blanket_to_the_sofa?" "right" "left" "posttest_filler" "7/18/2019" "11:09" "right" 1 3102.135 1 "25/07/15" "English" NA NA "female" "Post" "PO" "Pred"
"iLumJFeKJT74QSXxlJLJx63CE" 2 "3fillerpost2" "Dora_the_explorer_will_put_the_food_in_the_basket" "Can_you_put_the_food_in_the_basket?" "left" "right" "posttest_filler" "7/18/2019" "11:09" "left" 1 1063.135 1 "25/07/15" "English" NA NA "female" "Post" "PO" "Pred"
"iLumJFeKJT74QSXxlJLJx63CE" 3 "2Pre2" "The_girl_will_throw_the_elephant_a_clock" "Can_you_throw_the_elephant_the_clock?" "right" "left" "pretest" "7/18/2019" "11:09" "left" 0 3410.135 1 "25/07/15" "English" NA NA "female" "Post" "PO" "Pred"
"iLumJFeKJT74QSXxlJLJx63CE" 4 "5Pre2" "The_queen_will_send_the_monkey_a_horse" "Can_you_send_the_monkey_the_horse?" "left" "right" "pretest" "7/18/2019" "11:09" "right" 0 2145.135 1 "25/07/15" "English" NA NA "female" "Post" "PO" "Pred"
"iLumJFeKJT74QSXxlJLJx63CE" 5 "1Pre2" "The_boy_will_bring_the_giraffe_a_cake" "Can_you_bring_the_giraffe_the_cake?" "right" "left" "pretest" "7/18/2019" "11:09" "left" 0 1325.135 1 "25/07/15" "English" NA NA "female" "Post" "PO" "Pred"
"iLumJFeKJT74QSXxlJLJx63CE" 6 "3Pre2" "Peppa_Pig_will_send_the_hamster_a_toy" "Can_you_send_the_hamster_the_toy?" "left" "right" "pretest" "7/18/2019" "11:09" "left" 1 493.135 2 "25/07/15" "English" NA NA "female" "Post" "PO" "Pred"
"iLumJFeKJT74QSXxlJLJx63CE" 7 "4Pre2" "The_king_will_throw_the_turtle_a_squirrel" "Can_you_throw_the_turtle_the_squirrel?" "right" "left" "pretest" "7/18/2019" "11:09" "right" 1 427.135 1 "25/07/15" "English" NA NA "female" "Post" "PO" "Pred"
"iLumJFeKJT74QSXxlJLJx63CE" 8 "1FillerPre2" "Peppa_pig_will_bounce_the_ball_with_the_bat" "Can_you_bounce_the_ball_with_the_bat?" "right" "left" "pretest_filler" "7/18/2019" "11:09" "left" 0 558.135 1 "25/07/15" "English" NA NA "female" "Post" "PO" "Pred"
"iLumJFeKJT74QSXxlJLJx63CE" 9 "4FillerPre2" "The_king_will_poke_the_jelly_with_the_fork" "Can_you_poke_the_jelly_with_the_fork?" "left" "right" "pretest_filler" "7/18/2019" "11:09" "right" 0 912.135 1 "25/07/15" "English" NA NA "female" "Post" "PO" "Pred"
"iLumJFeKJT74QSXxlJLJx63CE" 10 "6Pre2" "Emily_elephant_will_bring_the_mouse_a_rabbit" "Can_you_bring_the_mouse_the_rabbit?" "left" "right" "pretest" "7/18/2019" "11:09" "left" 1 2309.135 1 "25/07/15" "English" NA NA "female" "Post" "PO" "Pred"
"isclaECAm1tGFGQGrJ6XxNJpp" 1 "4fillerpost2" "The_prince_will_move_the_blanket_to_the_sofa" "Can_you_move_the_blanket_to_the_sofa?" "right" "left" "posttest_filler" "6/25/2019" "11:32" "right" 1 5624.135 1 "03/06/2015" "English" NA NA "female" "Pre" "PO" "Pred"
"isclaECAm1tGFGQGrJ6XxNJpp" 2 "3fillerpost2" "Dora_the_explorer_will_put_the_food_in_the_basket" "Can_you_put_the_food_in_the_basket?" "left" "right" "posttest_filler" "6/25/2019" "11:32" "left" 1 3784.135 1 "03/06/2015" "English" NA NA "female" "Pre" "PO" "Pred"
"isclaECAm1tGFGQGrJ6XxNJpp" 3 "2fillerpost2" "Boots_will_clean_the_chair_with_the_sponge" "Can_you_clean_the_chair_with_the_sponge?" "right" "left" "posttest_filler" "6/25/2019" "11:32" "right" 1 2102.135 1 "03/06/2015" "English" NA NA "female" "Pre" "PO" "Pred"
"isclaECAm1tGFGQGrJ6XxNJpp" 4 "4Post2" "The_princess_will_send_the_lion_a_crocodile" "Can_you_send_the_lion_the_crocodile?" "right" "left" "posttest" "6/25/2019" "11:32" "left" 0 2916.135 1 "03/06/2015" "English" NA NA "female" "Pre" "PO" "Pred"
"isclaECAm1tGFGQGrJ6XxNJpp" 5 "1Post2" "The_boy_will_send_the_tiger_a_present" "Can_you_send_the_tiger_the_present?" "left" "right" "posttest" "6/25/2019" "11:32" "left" 1 10853.135 1 "03/06/2015" "English" NA NA "female" "Pre" "PO" "Pred"
"isclaECAm1tGFGQGrJ6XxNJpp" 6 "1fillerpost2" "The_princess_will_tickle_the_teddy_bear_with_the_feather" "Can_you_tickle_the_teddy_bear_with_the_feather?" "left" "right" "posttest_filler" "6/25/2019" "11:32" "left" 1 2106.135 1 "03/06/2015" "English" NA NA "female" "Pre" "PO" "Pred"
"isclaECAm1tGFGQGrJ6XxNJpp" 7 "3post2" "Boots_will_throw_the_giraffe_a_balloon" "Can_you_throw_the_giraffe_the_balloon?" "left" "right" "posttest" "6/25/2019" "11:32" "left" 1 6510.135 1 "03/06/2015" "English" NA NA "female" "Pre" "PO" "Pred"
"isclaECAm1tGFGQGrJ6XxNJpp" 8 "6post2" "Dora_the_explorer_will_throw_the_puppy_a_hamster" "Can_you_throw_puppy_the_hamster?" "right" "left" "posttest" "6/25/2019" "11:32" "right" 1 3747.135 1 "03/06/2015" "English" NA NA "female" "Pre" "PO" "Pred"
"isclaECAm1tGFGQGrJ6XxNJpp" 9 "5post2" "The_prince_will_bring_the_turtle_a_cat" "Can_you_bring_the_turtle_the_cat?" "left" "right" "posttest" "6/25/2019" "11:32" "right" 0 11114.135 1 "03/06/2015" "English" NA NA "female" "Pre" "PO" "Pred"
"isclaECAm1tGFGQGrJ6XxNJpp" 10 "2post2" "The_girl_will_bring_the_horse_an_ice_cream" "Can_you_bring_the_horse_the_ice_cream?" "right" "left" "posttest" "6/25/2019" "11:32" "right" 1 6516.135 1 "03/06/2015" "English" NA NA "female" "Pre" "PO" "Pred"
"iseNCnCqCEyIiNnjFag4ulgmD" 1 "4fillerpost2" "The_prince_will_move_the_blanket_to_the_sofa" "Can_you_move_the_blanket_to_the_sofa?" "right" "left" "posttest_filler" "6/17/2019" "10:51" "right" 1 1741.135 1 "05/09/14" "English and Welsh" NA NA "male" "Pre" "DO" "NonPred"
"iseNCnCqCEyIiNnjFag4ulgmD" 2 "3fillerpost2" "Dora_the_explorer_will_put_the_food_in_the_basket" "Can_you_put_the_food_in_the_basket?" "left" "right" "posttest_filler" "6/17/2019" "10:51" "left" 1 1782.135 1 "05/09/14" "English and Welsh" NA NA "male" "Pre" "DO" "NonPred"
"iseNCnCqCEyIiNnjFag4ulgmD" 3 "3post2" "Boots_will_throw_the_giraffe_a_balloon" "Can_you_throw_the_giraffe_the_balloon?" "left" "right" "posttest" "6/17/2019" "10:51" "left" 1 937.135 1 "05/09/14" "English and Welsh" NA NA "male" "Pre" "DO" "NonPred"
"iseNCnCqCEyIiNnjFag4ulgmD" 4 "2fillerpost2" "Boots_will_clean_the_chair_with_the_sponge" "Can_you_clean_the_chair_with_the_sponge?" "right" "left" "posttest_filler" "6/17/2019" "10:51" "right" 1 3237.135 1 "05/09/14" "English and Welsh" NA NA "male" "Pre" "DO" "NonPred"
"iseNCnCqCEyIiNnjFag4ulgmD" 5 "1fillerpost2" "The_princess_will_tickle_the_teddy_bear_with_the_feather" "Can_you_tickle_the_teddy_bear_with_the_feather?" "left" "right" "posttest_filler" "6/17/2019" "10:51" "left" 1 2257.135 1 "05/09/14" "English and Welsh" NA NA "male" "Pre" "DO" "NonPred"
"iseNCnCqCEyIiNnjFag4ulgmD" 6 "6post2" "Dora_the_explorer_will_throw_the_puppy_a_hamster" "Can_you_throw_puppy_the_hamster?" "left" "right" "posttest" "6/17/2019" "10:51" "left" 1 1047.135 1 "05/09/14" "English and Welsh" NA NA "male" "Pre" "DO" "NonPred"
"iseNCnCqCEyIiNnjFag4ulgmD" 7 "5post2" "The_prince_will_bring_the_turtle_a_cat" "Can_you_bring_the_turtle_the_cat?" "right" "left" "posttest" "6/17/2019" "10:51" "right" 1 1007.135 1 "05/09/14" "English and Welsh" NA NA "male" "Pre" "DO" "NonPred"
"iseNCnCqCEyIiNnjFag4ulgmD" 8 "4Post2" "The_princess_will_send_the_lion_a_crocodile" "Can_you_send_the_lion_the_crocodile?" "right" "left" "posttest" "6/17/2019" "10:51" "right" 1 3129.135 1 "05/09/14" "English and Welsh" NA NA "male" "Pre" "DO" "NonPred"
"iseNCnCqCEyIiNnjFag4ulgmD" 9 "1Post2" "The_boy_will_send_the_tiger_a_present" "Can_you_send_the_tiger_the_present?" "right" "left" "posttest" "6/17/2019" "10:51" "right" 1 1366.135 1 "05/09/14" "English and Welsh" NA NA "male" "Pre" "DO" "NonPred"
"iseNCnCqCEyIiNnjFag4ulgmD" 10 "2post2" "The_girl_will_bring_the_horse_an_ice_cream" "Can_you_bring_the_horse_the_ice_cream?" "left" "right" "posttest" "6/17/2019" "10:51" "left" 1 1192.135 1 "05/09/14" "English and Welsh" NA NA "male" "Pre" "DO" "NonPred"
"IubJKuZAYluSUxIEddzxWBXf7" 1 "4fillerpost2" "The_prince_will_move_the_blanket_to_the_sofa" "Can_you_move_the_blanket_to_the_sofa?" "right" "left" "posttest_filler" "7/2/2019" "11:32" "right" 1 2314.135 1 "06/11/14" "English" NA NA "female" "Pre" "PO" "Pred"
"IubJKuZAYluSUxIEddzxWBXf7" 2 "3fillerpost2" "Dora_the_explorer_will_put_the_food_in_the_basket" "Can_you_put_the_food_in_the_basket?" "left" "right" "posttest_filler" "7/2/2019" "11:32" "left" 1 2404.135 1 "06/11/14" "English" NA NA "female" "Pre" "PO" "Pred"
"IubJKuZAYluSUxIEddzxWBXf7" 3 "3post2" "Boots_will_throw_the_giraffe_a_balloon" "Can_you_throw_the_giraffe_the_balloon?" "left" "right" "posttest" "7/2/2019" "11:32" "right" 0 1961.135 1 "06/11/14" "English" NA NA "female" "Pre" "PO" "Pred"
"IubJKuZAYluSUxIEddzxWBXf7" 4 "6post2" "Dora_the_explorer_will_throw_the_puppy_a_hamster" "Can_you_throw_puppy_the_hamster?" "right" "left" "posttest" "7/2/2019" "11:32" "left" 0 5275.135 1 "06/11/14" "English" NA NA "female" "Pre" "PO" "Pred"
"IubJKuZAYluSUxIEddzxWBXf7" 5 "2post2" "The_girl_will_bring_the_horse_an_ice_cream" "Can_you_bring_the_horse_the_ice_cream?" "right" "left" "posttest" "7/2/2019" "11:32" "left" 0 2547.135 1 "06/11/14" "English" NA NA "female" "Pre" "PO" "Pred"
"IubJKuZAYluSUxIEddzxWBXf7" 6 "5post2" "The_prince_will_bring_the_turtle_a_cat" "Can_you_bring_the_turtle_the_cat?" "right" "left" "posttest" "7/2/2019" "11:32" "left" 0 2506.135 1 "06/11/14" "English" NA NA "female" "Pre" "PO" "Pred"
"IubJKuZAYluSUxIEddzxWBXf7" 7 "4Post2" "The_princess_will_send_the_lion_a_crocodile" "Can_you_send_the_lion_the_crocodile?" "left" "right" "posttest" "7/2/2019" "11:32" "right" 0 1336.135 1 "06/11/14" "English" NA NA "female" "Pre" "PO" "Pred"
"IubJKuZAYluSUxIEddzxWBXf7" 8 "1Post2" "The_boy_will_send_the_tiger_a_present" "Can_you_send_the_tiger_the_present?" "left" "right" "posttest" "7/2/2019" "11:32" "right" 0 1843.135 1 "06/11/14" "English" NA NA "female" "Pre" "PO" "Pred"
"IubJKuZAYluSUxIEddzxWBXf7" 9 "2fillerpost2" "Boots_will_clean_the_chair_with_the_sponge" "Can_you_clean_the_chair_with_the_sponge?" "left" "right" "posttest_filler" "7/2/2019" "11:32" "left" 1 2570.135 1 "06/11/14" "English" NA NA "female" "Pre" "PO" "Pred"
"IubJKuZAYluSUxIEddzxWBXf7" 10 "1fillerpost2" "The_princess_will_tickle_the_teddy_bear_with_the_feather" "Can_you_tickle_the_teddy_bear_with_the_feather?" "right" "left" "posttest_filler" "7/2/2019" "11:32" "right" 1 1814.135 1 "06/11/14" "English" NA NA "female" "Pre" "PO" "Pred"
"jKVZJkEUAYCAGTBz9VnYGdeA8" 1 "4fillerpost2" "The_prince_will_move_the_blanket_to_the_sofa" "Can_you_move_the_blanket_to_the_sofa?" "right" "left" "posttest_filler" "4/17/2019" "13:37" "right" 1 3327.135 1 "31/12/2014" "English" NA NA "male" "Pre" "DO" "NonPred"
"jKVZJkEUAYCAGTBz9VnYGdeA8" 2 "3fillerpost2" "Dora_the_explorer_will_put_the_food_in_the_basket" "Can_you_put_the_food_in_the_basket?" "left" "right" "posttest_filler" "4/17/2019" "13:37" "left" 1 5256.135 1 "31/12/2014" "English" NA NA "male" "Pre" "DO" "NonPred"
"jKVZJkEUAYCAGTBz9VnYGdeA8" 3 "2post2" "The_girl_will_bring_the_horse_an_ice_cream" "Can_you_bring_the_horse_the_ice_cream?" "left" "right" "posttest" "4/17/2019" "13:37" "left" 1 2281.135 1 "31/12/2014" "English" NA NA "male" "Pre" "DO" "NonPred"
"jKVZJkEUAYCAGTBz9VnYGdeA8" 4 "6post2" "Dora_the_explorer_will_throw_the_puppy_a_hamster" "Can_you_throw_puppy_the_hamster?" "right" "left" "posttest" "4/17/2019" "13:37" "left" 0 2230.135 1 "31/12/2014" "English" NA NA "male" "Pre" "DO" "NonPred"
"jKVZJkEUAYCAGTBz9VnYGdeA8" 5 "5post2" "The_prince_will_bring_the_turtle_a_cat" "Can_you_bring_the_turtle_the_cat?" "left" "right" "posttest" "4/17/2019" "13:37" "right" 0 4829.135 1 "31/12/2014" "English" NA NA "male" "Pre" "DO" "NonPred"
"jKVZJkEUAYCAGTBz9VnYGdeA8" 6 "1fillerpost2" "The_princess_will_tickle_the_teddy_bear_with_the_feather" "Can_you_tickle_the_teddy_bear_with_the_feather?" "right" "left" "posttest_filler" "4/17/2019" "13:37" "right" 1 2460.135 1 "31/12/2014" "English" NA NA "male" "Pre" "DO" "NonPred"
"jKVZJkEUAYCAGTBz9VnYGdeA8" 7 "2fillerpost2" "Boots_will_clean_the_chair_with_the_sponge" "Can_you_clean_the_chair_with_the_sponge?" "right" "left" "posttest_filler" "4/17/2019" "13:37" "right" 1 2143.135 1 "31/12/2014" "English" NA NA "male" "Pre" "DO" "NonPred"
