"subject_id" "trial_number" "trial_id" "target_sentence" "question" "target_side" "other_side" "trial_type" "date_stamp" "time_stamp" "side_chosen" "accuracy" "rt" "play_counter" "date_of_birth" "native_lang" "other_langs" "dev_info" "gender" "order" "sentence_type" "animacy"
"17yCXAcVORBqpufI4fbQdvBdb" 1 "2FillerPre2" "The_boy_will_put_the_train_in_the_box" "Can_you_put_the_train_in_the_box?" "right" "left" "pretest_filler" "7/18/2019" "09:59" "right" 1 4863.104 1 "07/05/15" "English" NA NA "male" "Post" "DO" "NonPred"
"17yCXAcVORBqpufI4fbQdvBdb" 2 "3FillerPre2" "The_girl_will_move_the_hat_to_the_table" "Can_you_move_the_hat_to_the_table?" "left" "right" "pretest_filler" "7/18/2019" "09:59" "left" 1 1879.104 1 "07/05/15" "English" NA NA "male" "Post" "DO" "NonPred"
"17yCXAcVORBqpufI4fbQdvBdb" 3 "2post2" "The_girl_will_bring_the_horse_an_ice_cream" "Can_you_bring_the_horse_the_ice_cream?" "left" "right" "posttest" "7/18/2019" "09:59" "right" 0 1168.104 1 "07/05/15" "English" NA NA "male" "Post" "DO" "NonPred"
"17yCXAcVORBqpufI4fbQdvBdb" 4 "5post2" "The_prince_will_bring_the_turtle_a_cat" "Can_you_bring_the_turtle_the_cat?" "right" "left" "posttest" "7/18/2019" "09:59" "left" 0 3643.104 1 "07/05/15" "English" NA NA "male" "Post" "DO" "NonPred"
"17yCXAcVORBqpufI4fbQdvBdb" 5 "3post2" "Boots_will_throw_the_giraffe_a_balloon" "Can_you_throw_the_giraffe_the_balloon?" "left" "right" "posttest" "7/18/2019" "09:59" "left" 1 6281.104 1 "07/05/15" "English" NA NA "male" "Post" "DO" "NonPred"
"17yCXAcVORBqpufI4fbQdvBdb" 6 "2fillerpost2" "Boots_will_clean_the_chair_with_the_sponge" "Can_you_clean_the_chair_with_the_sponge?" "right" "left" "posttest_filler" "7/18/2019" "09:59" "right" 1 3195.104 1 "07/05/15" "English" NA NA "male" "Post" "DO" "NonPred"
"17yCXAcVORBqpufI4fbQdvBdb" 7 "1Post2" "The_boy_will_send_the_tiger_a_present" "Can_you_send_the_tiger_the_present?" "right" "left" "posttest" "7/18/2019" "09:59" "right" 1 4189.104 1 "07/05/15" "English" NA NA "male" "Post" "DO" "NonPred"
"17yCXAcVORBqpufI4fbQdvBdb" 8 "6post2" "Dora_the_explorer_will_throw_the_puppy_a_hamster" "Can_you_throw_puppy_the_hamster?" "left" "right" "posttest" "7/18/2019" "09:59" "left" 1 2850.104 1 "07/05/15" "English" NA NA "male" "Post" "DO" "NonPred"
"17yCXAcVORBqpufI4fbQdvBdb" 9 "1fillerpost2" "The_princess_will_tickle_the_teddy_bear_with_the_feather" "Can_you_tickle_the_teddy_bear_with_the_feather?" "right" "left" "posttest_filler" "7/18/2019" "09:59" "right" 1 5814.104 1 "07/05/15" "English" NA NA "male" "Post" "DO" "NonPred"
"17yCXAcVORBqpufI4fbQdvBdb" 10 "4Post2" "The_princess_will_send_the_lion_a_crocodile" "Can_you_send_the_lion_the_crocodile?" "left" "right" "posttest" "7/18/2019" "09:59" "left" 1 1418.104 1 "07/05/15" "English" NA NA "male" "Post" "DO" "NonPred"
"1ebbSRddusMUfuZicVGxXhkbI" 1 "2FillerPre2" "The_boy_will_put_the_train_in_the_box" "Can_you_put_the_train_in_the_box?" "right" "left" "pretest_filler" "7/1/2019" "10:43" "right" 1 2803.104 1 "20/02/15" "English" NA NA "male" "Pre" "PO" "NonPred"
"1ebbSRddusMUfuZicVGxXhkbI" 2 "3FillerPre2" "The_girl_will_move_the_hat_to_the_table" "Can_you_move_the_hat_to_the_table?" "left" "right" "pretest_filler" "7/1/2019" "10:43" "left" 1 1352.104 1 "20/02/15" "English" NA NA "male" "Pre" "PO" "NonPred"
"1ebbSRddusMUfuZicVGxXhkbI" 3 "3Pre2" "Peppa_Pig_will_send_the_hamster_a_toy" "Can_you_send_the_hamster_the_toy?" "left" "right" "pretest" "7/1/2019" "10:43" "right" 0 1411.104 1 "20/02/15" "English" NA NA "male" "Pre" "PO" "NonPred"
"1ebbSRddusMUfuZicVGxXhkbI" 4 "6Pre2" "Emily_elephant_will_bring_the_mouse_a_rabbit" "Can_you_bring_the_mouse_the_rabbit?" "left" "right" "pretest" "7/1/2019" "10:43" "left" 1 4695.104 1 "20/02/15" "English" NA NA "male" "Pre" "PO" "NonPred"
"1ebbSRddusMUfuZicVGxXhkbI" 5 "5Pre2" "The_queen_will_send_the_monkey_a_horse" "Can_you_send_the_monkey_the_horse?" "right" "left" "pretest" "7/1/2019" "10:43" "left" 0 6938.104 1 "20/02/15" "English" NA NA "male" "Pre" "PO" "NonPred"
"1ebbSRddusMUfuZicVGxXhkbI" 6 "2Pre2" "The_girl_will_throw_the_elephant_a_clock" "Can_you_throw_the_elephant_the_clock?" "right" "left" "pretest" "7/1/2019" "10:43" "left" 0 8433.104 1 "20/02/15" "English" NA NA "male" "Pre" "PO" "NonPred"
"1ebbSRddusMUfuZicVGxXhkbI" 7 "1FillerPre2" "Peppa_pig_will_bounce_the_ball_with_the_bat" "Can_you_bounce_the_ball_with_the_bat?" "right" "left" "pretest_filler" "7/1/2019" "10:43" "left" 0 2821.104 1 "20/02/15" "English" NA NA "male" "Pre" "PO" "NonPred"
"1ebbSRddusMUfuZicVGxXhkbI" 8 "4FillerPre2" "The_king_will_poke_the_jelly_with_the_fork" "Can_you_poke_the_jelly_with_the_fork?" "left" "right" "pretest_filler" "7/1/2019" "10:43" "left" 1 4967.104 1 "20/02/15" "English" NA NA "male" "Pre" "PO" "NonPred"
"1ebbSRddusMUfuZicVGxXhkbI" 9 "1Pre2" "The_boy_will_bring_the_giraffe_a_cake" "Can_you_bring_the_giraffe_the_cake?" "left" "right" "pretest" "7/1/2019" "10:43" "right" 0 31861.104 1 "20/02/15" "English" NA NA "male" "Pre" "PO" "NonPred"
"1ebbSRddusMUfuZicVGxXhkbI" 10 "4Pre2" "The_king_will_throw_the_turtle_a_squirrel" "Can_you_throw_the_turtle_the_squirrel?" "right" "left" "pretest" "7/1/2019" "10:43" "left" 0 2207.104 1 "20/02/15" "English" NA NA "male" "Pre" "PO" "NonPred"
"1k3P0gDo6S69m8yf4ofLTpSPt" 1 "2FillerPre2" "The_boy_will_put_the_train_in_the_box" "Can_you_put_the_train_in_the_box?" "right" "left" "pretest_filler" "4/18/2019" "10:56" "right" 1 6584.104 1 "03/11/2014" "English" NA NA "female" "Post" "DO" "NonPred"
"1k3P0gDo6S69m8yf4ofLTpSPt" 2 "3FillerPre2" "The_girl_will_move_the_hat_to_the_table" "Can_you_move_the_hat_to_the_table?" "left" "right" "pretest_filler" "4/18/2019" "10:56" "left" 1 2915.104 1 "03/11/2014" "English" NA NA "female" "Post" "DO" "NonPred"
"1k3P0gDo6S69m8yf4ofLTpSPt" 3 "4Post2" "The_princess_will_send_the_lion_a_crocodile" "Can_you_send_the_lion_the_crocodile?" "left" "right" "posttest" "4/18/2019" "10:56" "right" 0 2876.104 1 "03/11/2014" "English" NA NA "female" "Post" "DO" "NonPred"
"1k3P0gDo6S69m8yf4ofLTpSPt" 4 "2fillerpost2" "Boots_will_clean_the_chair_with_the_sponge" "Can_you_clean_the_chair_with_the_sponge?" "right" "left" "posttest_filler" "4/18/2019" "10:56" "right" 1 4042.104 1 "03/11/2014" "English" NA NA "female" "Post" "DO" "NonPred"
"1k3P0gDo6S69m8yf4ofLTpSPt" 5 "1fillerpost2" "The_princess_will_tickle_the_teddy_bear_with_the_feather" "Can_you_tickle_the_teddy_bear_with_the_feather?" "left" "right" "posttest_filler" "4/18/2019" "10:56" "left" 1 5755.104 3 "03/11/2014" "English" NA NA "female" "Post" "DO" "NonPred"
"1k3P0gDo6S69m8yf4ofLTpSPt" 6 "6post2" "Dora_the_explorer_will_throw_the_puppy_a_hamster" "Can_you_throw_puppy_the_hamster?" "left" "right" "posttest" "4/18/2019" "10:56" "left" 1 22899.104 1 "03/11/2014" "English" NA NA "female" "Post" "DO" "NonPred"
"1k3P0gDo6S69m8yf4ofLTpSPt" 7 "2post2" "The_girl_will_bring_the_horse_an_ice_cream" "Can_you_bring_the_horse_the_ice_cream?" "right" "left" "posttest" "4/18/2019" "10:56" "left" 0 7580.104 1 "03/11/2014" "English" NA NA "female" "Post" "DO" "NonPred"
"1k3P0gDo6S69m8yf4ofLTpSPt" 8 "3post2" "Boots_will_throw_the_giraffe_a_balloon" "Can_you_throw_the_giraffe_the_balloon?" "right" "left" "posttest" "4/18/2019" "10:56" "left" 0 2980.104 1 "03/11/2014" "English" NA NA "female" "Post" "DO" "NonPred"
"1k3P0gDo6S69m8yf4ofLTpSPt" 9 "1Post2" "The_boy_will_send_the_tiger_a_present" "Can_you_send_the_tiger_the_present?" "left" "right" "posttest" "4/18/2019" "10:56" "left" 1 2035.104 1 "03/11/2014" "English" NA NA "female" "Post" "DO" "NonPred"
"1k3P0gDo6S69m8yf4ofLTpSPt" 10 "5post2" "The_prince_will_bring_the_turtle_a_cat" "Can_you_bring_the_turtle_the_cat?" "right" "left" "posttest" "4/18/2019" "10:56" "left" 0 1771.104 1 "03/11/2014" "English" NA NA "female" "Post" "DO" "NonPred"
"1lnxkkBkcSSP61ZyjAlwc7ap7" 1 "2FillerPre2" "The_boy_will_put_the_train_in_the_box" "Can_you_put_the_train_in_the_box?" "right" "left" "pretest_filler" "7/18/2019" "10:50" "right" 1 3348.104 1 "20/02/15" "English" NA NA "male" "Post" "DO" "NonPred"
"1lnxkkBkcSSP61ZyjAlwc7ap7" 2 "3FillerPre2" "The_girl_will_move_the_hat_to_the_table" "Can_you_move_the_hat_to_the_table?" "left" "right" "pretest_filler" "7/18/2019" "10:50" "left" 1 3242.104 1 "20/02/15" "English" NA NA "male" "Post" "DO" "NonPred"
"1lnxkkBkcSSP61ZyjAlwc7ap7" 3 "6post2" "Dora_the_explorer_will_throw_the_puppy_a_hamster" "Can_you_throw_puppy_the_hamster?" "right" "left" "posttest" "7/18/2019" "10:50" "left" 0 2646.104 1 "20/02/15" "English" NA NA "male" "Post" "DO" "NonPred"
"1lnxkkBkcSSP61ZyjAlwc7ap7" 4 "5post2" "The_prince_will_bring_the_turtle_a_cat" "Can_you_bring_the_turtle_the_cat?" "left" "right" "posttest" "7/18/2019" "10:50" "right" 0 2249.104 1 "20/02/15" "English" NA NA "male" "Post" "DO" "NonPred"
"1lnxkkBkcSSP61ZyjAlwc7ap7" 5 "2fillerpost2" "Boots_will_clean_the_chair_with_the_sponge" "Can_you_clean_the_chair_with_the_sponge?" "right" "left" "posttest_filler" "7/18/2019" "10:50" "right" 1 2339.104 1 "20/02/15" "English" NA NA "male" "Post" "DO" "NonPred"
"1lnxkkBkcSSP61ZyjAlwc7ap7" 6 "3post2" "Boots_will_throw_the_giraffe_a_balloon" "Can_you_throw_the_giraffe_the_balloon?" "left" "right" "posttest" "7/18/2019" "10:50" "right" 0 1007.104 1 "20/02/15" "English" NA NA "male" "Post" "DO" "NonPred"
"1lnxkkBkcSSP61ZyjAlwc7ap7" 7 "4Post2" "The_princess_will_send_the_lion_a_crocodile" "Can_you_send_the_lion_the_crocodile?" "left" "right" "posttest" "7/18/2019" "10:50" "right" 0 2328.104 1 "20/02/15" "English" NA NA "male" "Post" "DO" "NonPred"
"1lnxkkBkcSSP61ZyjAlwc7ap7" 8 "1fillerpost2" "The_princess_will_tickle_the_teddy_bear_with_the_feather" "Can_you_tickle_the_teddy_bear_with_the_feather?" "left" "right" "posttest_filler" "7/18/2019" "10:50" "left" 1 2783.104 1 "20/02/15" "English" NA NA "male" "Post" "DO" "NonPred"
"1lnxkkBkcSSP61ZyjAlwc7ap7" 9 "2post2" "The_girl_will_bring_the_horse_an_ice_cream" "Can_you_bring_the_horse_the_ice_cream?" "right" "left" "posttest" "7/18/2019" "10:50" "right" 1 2239.104 1 "20/02/15" "English" NA NA "male" "Post" "DO" "NonPred"
"1lnxkkBkcSSP61ZyjAlwc7ap7" 10 "1Post2" "The_boy_will_send_the_tiger_a_present" "Can_you_send_the_tiger_the_present?" "right" "left" "posttest" "7/18/2019" "10:50" "right" 1 1582.104 1 "20/02/15" "English" NA NA "male" "Post" "DO" "NonPred"
"2GHibkOORxf1BEG7fHceuUNve" 1 "2FillerPre2" "The_boy_will_put_the_train_in_the_box" "Can_you_put_the_train_in_the_box?" "right" "left" "pretest_filler" "06/05/2019" "14:19" "right" 1 3846.104 1 "10/01/2015" "English" NA NA "male" "Post" "DO" "Pred"
"2GHibkOORxf1BEG7fHceuUNve" 2 "3FillerPre2" "The_girl_will_move_the_hat_to_the_table" "Can_you_move_the_hat_to_the_table?" "left" "right" "pretest_filler" "06/05/2019" "14:19" "left" 1 4186.104 1 "10/01/2015" "English" NA NA "male" "Post" "DO" "Pred"
"2GHibkOORxf1BEG7fHceuUNve" 3 "1fillerpost2" "The_princess_will_tickle_the_teddy_bear_with_the_feather" "Can_you_tickle_the_teddy_bear_with_the_feather?" "left" "right" "posttest_filler" "06/05/2019" "14:19" "left" 1 4435.104 2 "10/01/2015" "English" NA NA "male" "Post" "DO" "Pred"
"2GHibkOORxf1BEG7fHceuUNve" 4 "6post2" "Dora_the_explorer_will_throw_the_puppy_a_hamster" "Can_you_throw_puppy_the_hamster?" "right" "left" "posttest" "06/05/2019" "14:19" "right" 1 2747.104 1 "10/01/2015" "English" NA NA "male" "Post" "DO" "Pred"
"2GHibkOORxf1BEG7fHceuUNve" 5 "1Post2" "The_boy_will_send_the_tiger_a_present" "Can_you_send_the_tiger_the_present?" "left" "right" "posttest" "06/05/2019" "14:19" "left" 1 1056.104 1 "10/01/2015" "English" NA NA "male" "Post" "DO" "Pred"
"2GHibkOORxf1BEG7fHceuUNve" 6 "3post2" "Boots_will_throw_the_giraffe_a_balloon" "Can_you_throw_the_giraffe_the_balloon?" "right" "left" "posttest" "06/05/2019" "14:19" "right" 1 2180.104 1 "10/01/2015" "English" NA NA "male" "Post" "DO" "Pred"
"2GHibkOORxf1BEG7fHceuUNve" 7 "5post2" "The_prince_will_bring_the_turtle_a_cat" "Can_you_bring_the_turtle_the_cat?" "right" "left" "posttest" "06/05/2019" "14:19" "right" 1 2675.104 1 "10/01/2015" "English" NA NA "male" "Post" "DO" "Pred"
"2GHibkOORxf1BEG7fHceuUNve" 8 "2post2" "The_girl_will_bring_the_horse_an_ice_cream" "Can_you_bring_the_horse_the_ice_cream?" "left" "right" "posttest" "06/05/2019" "14:19" "left" 1 1635.104 1 "10/01/2015" "English" NA NA "male" "Post" "DO" "Pred"
"2GHibkOORxf1BEG7fHceuUNve" 9 "2fillerpost2" "Boots_will_clean_the_chair_with_the_sponge" "Can_you_clean_the_chair_with_the_sponge?" "left" "right" "posttest_filler" "06/05/2019" "14:19" "left" 1 997.104 1 "10/01/2015" "English" NA NA "male" "Post" "DO" "Pred"
"2GHibkOORxf1BEG7fHceuUNve" 10 "4Post2" "The_princess_will_send_the_lion_a_crocodile" "Can_you_send_the_lion_the_crocodile?" "right" "left" "posttest" "06/05/2019" "14:19" "right" 1 2353.104 1 "10/01/2015" "English" NA NA "male" "Post" "DO" "Pred"
"2hYJmUF5jJEGGI7LxAbvsImqO" 1 "2FillerPre2" "The_boy_will_put_the_train_in_the_box" "Can_you_put_the_train_in_the_box?" "right" "left" "pretest_filler" "6/28/2019" "10:10" "right" 1 4320.104 1 "31/01/2015" "English" NA NA "male" "Post" "PO" "NonPred"
"2hYJmUF5jJEGGI7LxAbvsImqO" 2 "3FillerPre2" "The_girl_will_move_the_hat_to_the_table" "Can_you_move_the_hat_to_the_table?" "left" "right" "pretest_filler" "6/28/2019" "10:10" "left" 1 1997.104 1 "31/01/2015" "English" NA NA "male" "Post" "PO" "NonPred"
"2hYJmUF5jJEGGI7LxAbvsImqO" 3 "6post2" "Dora_the_explorer_will_throw_the_puppy_a_hamster" "Can_you_throw_puppy_the_hamster?" "left" "right" "posttest" "6/28/2019" "10:10" "right" 0 8089.104 1 "31/01/2015" "English" NA NA "male" "Post" "PO" "NonPred"
"2hYJmUF5jJEGGI7LxAbvsImqO" 4 "4Post2" "The_princess_will_send_the_lion_a_crocodile" "Can_you_send_the_lion_the_crocodile?" "left" "right" "posttest" "6/28/2019" "10:10" "right" 0 7985.104 1 "31/01/2015" "English" NA NA "male" "Post" "PO" "NonPred"
"2hYJmUF5jJEGGI7LxAbvsImqO" 5 "5post2" "The_prince_will_bring_the_turtle_a_cat" "Can_you_bring_the_turtle_the_cat?" "right" "left" "posttest" "6/28/2019" "10:10" "left" 0 3258.104 1 "31/01/2015" "English" NA NA "male" "Post" "PO" "NonPred"
"2hYJmUF5jJEGGI7LxAbvsImqO" 6 "2post2" "The_girl_will_bring_the_horse_an_ice_cream" "Can_you_bring_the_horse_the_ice_cream?" "right" "left" "posttest" "6/28/2019" "10:10" "left" 0 3057.104 1 "31/01/2015" "English" NA NA "male" "Post" "PO" "NonPred"
"2hYJmUF5jJEGGI7LxAbvsImqO" 7 "1fillerpost2" "The_princess_will_tickle_the_teddy_bear_with_the_feather" "Can_you_tickle_the_teddy_bear_with_the_feather?" "left" "right" "posttest_filler" "6/28/2019" "10:10" "left" 1 4262.104 1 "31/01/2015" "English" NA NA "male" "Post" "PO" "NonPred"
"2hYJmUF5jJEGGI7LxAbvsImqO" 8 "3post2" "Boots_will_throw_the_giraffe_a_balloon" "Can_you_throw_the_giraffe_the_balloon?" "right" "left" "posttest" "6/28/2019" "10:10" "left" 0 2682.104 1 "31/01/2015" "English" NA NA "male" "Post" "PO" "NonPred"
"2hYJmUF5jJEGGI7LxAbvsImqO" 9 "1Post2" "The_boy_will_send_the_tiger_a_present" "Can_you_send_the_tiger_the_present?" "right" "left" "posttest" "6/28/2019" "10:10" "left" 0 7898.104 1 "31/01/2015" "English" NA NA "male" "Post" "PO" "NonPred"
"2hYJmUF5jJEGGI7LxAbvsImqO" 10 "2fillerpost2" "Boots_will_clean_the_chair_with_the_sponge" "Can_you_clean_the_chair_with_the_sponge?" "left" "right" "posttest_filler" "6/28/2019" "10:10" "left" 1 2898.104 1 "31/01/2015" "English" NA NA "male" "Post" "PO" "NonPred"
"498wbE6Ds1TB31uO9iPg2FSGC" 1 "2FillerPre2" "The_boy_will_put_the_train_in_the_box" "Can_you_put_the_train_in_the_box?" "right" "left" "pretest_filler" "6/17/2019" "11:19" "right" 1 1668.104 1 "10/05/2015" "English" "Welsh" NA "female" "Pre" "PO" "Pred"
"498wbE6Ds1TB31uO9iPg2FSGC" 2 "3FillerPre2" "The_girl_will_move_the_hat_to_the_table" "Can_you_move_the_hat_to_the_table?" "left" "right" "pretest_filler" "6/17/2019" "11:19" "left" 1 2232.104 1 "10/05/2015" "English" "Welsh" NA "female" "Pre" "PO" "Pred"
"498wbE6Ds1TB31uO9iPg2FSGC" 3 "4FillerPre2" "The_king_will_poke_the_jelly_with_the_fork" "Can_you_poke_the_jelly_with_the_fork?" "left" "right" "pretest_filler" "6/17/2019" "11:19" "left" 1 1683.104 1 "10/05/2015" "English" "Welsh" NA "female" "Pre" "PO" "Pred"
"498wbE6Ds1TB31uO9iPg2FSGC" 4 "6Pre2" "Emily_elephant_will_bring_the_mouse_a_rabbit" "Can_you_bring_the_mouse_the_rabbit?" "left" "right" "pretest" "6/17/2019" "11:19" "right" 0 1423.104 1 "10/05/2015" "English" "Welsh" NA "female" "Pre" "PO" "Pred"
"498wbE6Ds1TB31uO9iPg2FSGC" 5 "3Pre2" "Peppa_Pig_will_send_the_hamster_a_toy" "Can_you_send_the_hamster_the_toy?" "right" "left" "pretest" "6/17/2019" "11:19" "left" 0 1693.104 1 "10/05/2015" "English" "Welsh" NA "female" "Pre" "PO" "Pred"
"498wbE6Ds1TB31uO9iPg2FSGC" 6 "4Pre2" "The_king_will_throw_the_turtle_a_squirrel" "Can_you_throw_the_turtle_the_squirrel?" "left" "right" "pretest" "6/17/2019" "11:19" "right" 0 1126.104 1 "10/05/2015" "English" "Welsh" NA "female" "Pre" "PO" "Pred"
"498wbE6Ds1TB31uO9iPg2FSGC" 7 "5Pre2" "The_queen_will_send_the_monkey_a_horse" "Can_you_send_the_monkey_the_horse?" "right" "left" "pretest" "6/17/2019" "11:19" "left" 0 1572.104 1 "10/05/2015" "English" "Welsh" NA "female" "Pre" "PO" "Pred"
"498wbE6Ds1TB31uO9iPg2FSGC" 8 "2Pre2" "The_girl_will_throw_the_elephant_a_clock" "Can_you_throw_the_elephant_the_clock?" "right" "left" "pretest" "6/17/2019" "11:19" "right" 1 13295.104 1 "10/05/2015" "English" "Welsh" NA "female" "Pre" "PO" "Pred"
"498wbE6Ds1TB31uO9iPg2FSGC" 9 "1Pre2" "The_boy_will_bring_the_giraffe_a_cake" "Can_you_bring_the_giraffe_the_cake?" "right" "left" "pretest" "6/17/2019" "11:19" "right" 1 2763.104 1 "10/05/2015" "English" "Welsh" NA "female" "Pre" "PO" "Pred"
"498wbE6Ds1TB31uO9iPg2FSGC" 10 "1FillerPre2" "Peppa_pig_will_bounce_the_ball_with_the_bat" "Can_you_bounce_the_ball_with_the_bat?" "left" "right" "pretest_filler" "6/17/2019" "11:19" "right" 0 2509.104 1 "10/05/2015" "English" "Welsh" NA "female" "Pre" "PO" "Pred"
"61x4FnXrK9rg95OYskMdijIyJ" 1 "2FillerPre2" "The_boy_will_put_the_train_in_the_box" "Can_you_put_the_train_in_the_box?" "right" "left" "pretest_filler" "7/17/2019" "14:31" "right" 1 7976.104 1 "08/11/13" "English" NA NA "female" "Post" "PO" "Pred"
"61x4FnXrK9rg95OYskMdijIyJ" 2 "3FillerPre2" "The_girl_will_move_the_hat_to_the_table" "Can_you_move_the_hat_to_the_table?" "left" "right" "pretest_filler" "7/17/2019" "14:31" "left" 1 14073.104 1 "08/11/13" "English" NA NA "female" "Post" "PO" "Pred"
"61x4FnXrK9rg95OYskMdijIyJ" 3 "1Post2" "The_boy_will_send_the_tiger_a_present" "Can_you_send_the_tiger_the_present?" "left" "right" "posttest" "7/17/2019" "14:31" "left" 1 6069.104 1 "08/11/13" "English" NA NA "female" "Post" "PO" "Pred"
"61x4FnXrK9rg95OYskMdijIyJ" 4 "2fillerpost2" "Boots_will_clean_the_chair_with_the_sponge" "Can_you_clean_the_chair_with_the_sponge?" "right" "left" "posttest_filler" "7/17/2019" "14:31" "right" 1 3368.104 1 "08/11/13" "English" NA NA "female" "Post" "PO" "Pred"
"61x4FnXrK9rg95OYskMdijIyJ" 5 "4Post2" "The_princess_will_send_the_lion_a_crocodile" "Can_you_send_the_lion_the_crocodile?" "left" "right" "posttest" "7/17/2019" "14:31" "left" 1 13371.104 1 "08/11/13" "English" NA NA "female" "Post" "PO" "Pred"
"61x4FnXrK9rg95OYskMdijIyJ" 6 "1fillerpost2" "The_princess_will_tickle_the_teddy_bear_with_the_feather" "Can_you_tickle_the_teddy_bear_with_the_feather?" "left" "right" "posttest_filler" "7/17/2019" "14:31" "left" 1 5276.104 1 "08/11/13" "English" NA NA "female" "Post" "PO" "Pred"
"61x4FnXrK9rg95OYskMdijIyJ" 7 "6post2" "Dora_the_explorer_will_throw_the_puppy_a_hamster" "Can_you_throw_puppy_the_hamster?" "right" "left" "posttest" "7/17/2019" "14:31" "left" 0 7089.104 1 "08/11/13" "English" NA NA "female" "Post" "PO" "Pred"
"61x4FnXrK9rg95OYskMdijIyJ" 8 "3post2" "Boots_will_throw_the_giraffe_a_balloon" "Can_you_throw_the_giraffe_the_balloon?" "left" "right" "posttest" "7/17/2019" "14:31" "right" 0 4196.104 1 "08/11/13" "English" NA NA "female" "Post" "PO" "Pred"
"61x4FnXrK9rg95OYskMdijIyJ" 9 "2post2" "The_girl_will_bring_the_horse_an_ice_cream" "Can_you_bring_the_horse_the_ice_cream?" "right" "left" "posttest" "7/17/2019" "14:31" "left" 0 3281.104 1 "08/11/13" "English" NA NA "female" "Post" "PO" "Pred"
"61x4FnXrK9rg95OYskMdijIyJ" 10 "5post2" "The_prince_will_bring_the_turtle_a_cat" "Can_you_bring_the_turtle_the_cat?" "right" "left" "posttest" "7/17/2019" "14:31" "left" 0 2311.104 1 "08/11/13" "English" NA NA "female" "Post" "PO" "Pred"
"7MSbwhpozV3MbVAdES2Ot3Yed" 1 "2FillerPre2" "The_boy_will_put_the_train_in_the_box" "Can_you_put_the_train_in_the_box?" "right" "left" "pretest_filler" "7/17/2019" "14:12" "right" 1 2314.104 1 "30/11/13" "English" NA NA "female" "Pre" "PO" "NonPred"
"7MSbwhpozV3MbVAdES2Ot3Yed" 2 "3FillerPre2" "The_girl_will_move_the_hat_to_the_table" "Can_you_move_the_hat_to_the_table?" "left" "right" "pretest_filler" "7/17/2019" "14:12" "left" 1 1181.104 1 "30/11/13" "English" NA NA "female" "Pre" "PO" "NonPred"
"7MSbwhpozV3MbVAdES2Ot3Yed" 3 "4FillerPre2" "The_king_will_poke_the_jelly_with_the_fork" "Can_you_poke_the_jelly_with_the_fork?" "right" "left" "pretest_filler" "7/17/2019" "14:12" "right" 1 2779.104 1 "30/11/13" "English" NA NA "female" "Pre" "PO" "NonPred"
"7MSbwhpozV3MbVAdES2Ot3Yed" 4 "4Pre2" "The_king_will_throw_the_turtle_a_squirrel" "Can_you_throw_the_turtle_the_squirrel?" "right" "left" "pretest" "7/17/2019" "14:12" "left" 0 26522.104 1 "30/11/13" "English" NA NA "female" "Pre" "PO" "NonPred"
"7MSbwhpozV3MbVAdES2Ot3Yed" 5 "1FillerPre2" "Peppa_pig_will_bounce_the_ball_with_the_bat" "Can_you_bounce_the_ball_with_the_bat?" "left" "right" "pretest_filler" "7/17/2019" "14:12" "left" 1 5531.104 1 "30/11/13" "English" NA NA "female" "Pre" "PO" "NonPred"
"7MSbwhpozV3MbVAdES2Ot3Yed" 6 "5Pre2" "The_queen_will_send_the_monkey_a_horse" "Can_you_send_the_monkey_the_horse?" "left" "right" "pretest" "7/17/2019" "14:12" "left" 1 1902.104 1 "30/11/13" "English" NA NA "female" "Pre" "PO" "NonPred"
"7MSbwhpozV3MbVAdES2Ot3Yed" 7 "2Pre2" "The_girl_will_throw_the_elephant_a_clock" "Can_you_throw_the_elephant_the_clock?" "left" "right" "pretest" "7/17/2019" "14:12" "left" 1 4075.104 1 "30/11/13" "English" NA NA "female" "Pre" "PO" "NonPred"
"7MSbwhpozV3MbVAdES2Ot3Yed" 8 "1Pre2" "The_boy_will_bring_the_giraffe_a_cake" "Can_you_bring_the_giraffe_the_cake?" "right" "left" "pretest" "7/17/2019" "14:12" "right" 1 2098.104 1 "30/11/13" "English" NA NA "female" "Pre" "PO" "NonPred"
"7MSbwhpozV3MbVAdES2Ot3Yed" 9 "6Pre2" "Emily_elephant_will_bring_the_mouse_a_rabbit" "Can_you_bring_the_mouse_the_rabbit?" "left" "right" "pretest" "7/17/2019" "14:12" "left" 1 1670.104 1 "30/11/13" "English" NA NA "female" "Pre" "PO" "NonPred"
"7MSbwhpozV3MbVAdES2Ot3Yed" 10 "3Pre2" "Peppa_Pig_will_send_the_hamster_a_toy" "Can_you_send_the_hamster_the_toy?" "right" "left" "pretest" "7/17/2019" "14:12" "right" 1 2599.104 1 "30/11/13" "English" NA NA "female" "Pre" "PO" "NonPred"
"7VD7Nx9teJprkUcPfXD2yLYyi" 1 "2FillerPre2" "The_boy_will_put_the_train_in_the_box" "Can_you_put_the_train_in_the_box?" "right" "left" "pretest_filler" "7/18/2019" "13:41" "right" 1 2577.104 1 "10/12/14" "English" NA NA "male" "Post" "PO" "NonPred"
"7VD7Nx9teJprkUcPfXD2yLYyi" 2 "3FillerPre2" "The_girl_will_move_the_hat_to_the_table" "Can_you_move_the_hat_to_the_table?" "left" "right" "pretest_filler" "7/18/2019" "13:41" "left" 1 2174.104 1 "10/12/14" "English" NA NA "male" "Post" "PO" "NonPred"
"7VD7Nx9teJprkUcPfXD2yLYyi" 3 "1Post2" "The_boy_will_send_the_tiger_a_present" "Can_you_send_the_tiger_the_present?" "right" "left" "posttest" "7/18/2019" "13:41" "right" 1 2445.104 1 "10/12/14" "English" NA NA "male" "Post" "PO" "NonPred"
"7VD7Nx9teJprkUcPfXD2yLYyi" 4 "6post2" "Dora_the_explorer_will_throw_the_puppy_a_hamster" "Can_you_throw_puppy_the_hamster?" "right" "left" "posttest" "7/18/2019" "13:41" "right" 1 2655.104 1 "10/12/14" "English" NA NA "male" "Post" "PO" "NonPred"
"7VD7Nx9teJprkUcPfXD2yLYyi" 5 "3post2" "Boots_will_throw_the_giraffe_a_balloon" "Can_you_throw_the_giraffe_the_balloon?" "left" "right" "posttest" "7/18/2019" "13:41" "left" 1 3287.104 1 "10/12/14" "English" NA NA "male" "Post" "PO" "NonPred"
"7VD7Nx9teJprkUcPfXD2yLYyi" 6 "2post2" "The_girl_will_bring_the_horse_an_ice_cream" "Can_you_bring_the_horse_the_ice_cream?" "right" "left" "posttest" "7/18/2019" "13:41" "right" 1 3208.104 1 "10/12/14" "English" NA NA "male" "Post" "PO" "NonPred"
"7VD7Nx9teJprkUcPfXD2yLYyi" 7 "1fillerpost2" "The_princess_will_tickle_the_teddy_bear_with_the_feather" "Can_you_tickle_the_teddy_bear_with_the_feather?" "left" "right" "posttest_filler" "7/18/2019" "13:41" "left" 1 5920.104 1 "10/12/14" "English" NA NA "male" "Post" "PO" "NonPred"
"7VD7Nx9teJprkUcPfXD2yLYyi" 8 "4Post2" "The_princess_will_send_the_lion_a_crocodile" "Can_you_send_the_lion_the_crocodile?" "right" "left" "posttest" "7/18/2019" "13:41" "right" 1 6418.104 1 "10/12/14" "English" NA NA "male" "Post" "PO" "NonPred"
"7VD7Nx9teJprkUcPfXD2yLYyi" 9 "5post2" "The_prince_will_bring_the_turtle_a_cat" "Can_you_bring_the_turtle_the_cat?" "left" "right" "posttest" "7/18/2019" "13:41" "left" 1 1513.104 1 "10/12/14" "English" NA NA "male" "Post" "PO" "NonPred"
"7VD7Nx9teJprkUcPfXD2yLYyi" 10 "2fillerpost2" "Boots_will_clean_the_chair_with_the_sponge" "Can_you_clean_the_chair_with_the_sponge?" "left" "right" "posttest_filler" "7/18/2019" "13:41" "left" 1 3341.104 1 "10/12/14" "English" NA NA "male" "Post" "PO" "NonPred"
"7xoupuLiWWN49ct7OYCyzg4U1" 1 "2FillerPre2" "The_boy_will_put_the_train_in_the_box" "Can_you_put_the_train_in_the_box?" "right" "left" "pretest_filler" "6/25/2019" "11:32" "right" 1 5399.104 1 "11/5/15" "English" NA NA "male" "Post" "DO" "NonPred"
"7xoupuLiWWN49ct7OYCyzg4U1" 2 "3FillerPre2" "The_girl_will_move_the_hat_to_the_table" "Can_you_move_the_hat_to_the_table?" "left" "right" "pretest_filler" "6/25/2019" "11:32" "left" 1 3586.104 1 "11/5/15" "English" NA NA "male" "Post" "DO" "NonPred"
"7xoupuLiWWN49ct7OYCyzg4U1" 3 "3post2" "Boots_will_throw_the_giraffe_a_balloon" "Can_you_throw_the_giraffe_the_balloon?" "left" "right" "posttest" "6/25/2019" "11:32" "right" 0 2502.104 1 "11/5/15" "English" NA NA "male" "Post" "DO" "NonPred"
"7xoupuLiWWN49ct7OYCyzg4U1" 4 "2post2" "The_girl_will_bring_the_horse_an_ice_cream" "Can_you_bring_the_horse_the_ice_cream?" "left" "right" "posttest" "6/25/2019" "11:32" "right" 0 3308.104 1 "11/5/15" "English" NA NA "male" "Post" "DO" "NonPred"
"7xoupuLiWWN49ct7OYCyzg4U1" 5 "4Post2" "The_princess_will_send_the_lion_a_crocodile" "Can_you_send_the_lion_the_crocodile?" "right" "left" "posttest" "6/25/2019" "11:32" "right" 1 7420.104 1 "11/5/15" "English" NA NA "male" "Post" "DO" "NonPred"
"7xoupuLiWWN49ct7OYCyzg4U1" 6 "2fillerpost2" "Boots_will_clean_the_chair_with_the_sponge" "Can_you_clean_the_chair_with_the_sponge?" "left" "right" "posttest_filler" "6/25/2019" "11:32" "left" 1 4088.104 1 "11/5/15" "English" NA NA "male" "Post" "DO" "NonPred"
"7xoupuLiWWN49ct7OYCyzg4U1" 7 "6post2" "Dora_the_explorer_will_throw_the_puppy_a_hamster" "Can_you_throw_puppy_the_hamster?" "right" "left" "posttest" "6/25/2019" "11:32" "left" 0 1755.104 1 "11/5/15" "English" NA NA "male" "Post" "DO" "NonPred"
"7xoupuLiWWN49ct7OYCyzg4U1" 8 "1fillerpost2" "The_princess_will_tickle_the_teddy_bear_with_the_feather" "Can_you_tickle_the_teddy_bear_with_the_feather?" "right" "left" "posttest_filler" "6/25/2019" "11:32" "right" 1 3727.104 1 "11/5/15" "English" NA NA "male" "Post" "DO" "NonPred"
"7xoupuLiWWN49ct7OYCyzg4U1" 9 "1Post2" "The_boy_will_send_the_tiger_a_present" "Can_you_send_the_tiger_the_present?" "right" "left" "posttest" "6/25/2019" "11:32" "right" 1 1147.104 1 "11/5/15" "English" NA NA "male" "Post" "DO" "NonPred"
"7xoupuLiWWN49ct7OYCyzg4U1" 10 "5post2" "The_prince_will_bring_the_turtle_a_cat" "Can_you_bring_the_turtle_the_cat?" "left" "right" "posttest" "6/25/2019" "11:32" "right" 0 4092.104 1 "11/5/15" "English" NA NA "male" "Post" "DO" "NonPred"
"8j4VM43BeCn8rJgGNRSr36Zqu" 1 "2FillerPre2" "The_boy_will_put_the_train_in_the_box" "Can_you_put_the_train_in_the_box?" "right" "left" "pretest_filler" "7/1/2019" "09:58" "right" 1 2916.104 1 "25/05/15" "English" NA NA "male" "Post" "PO" "Pred"
"8j4VM43BeCn8rJgGNRSr36Zqu" 2 "3FillerPre2" "The_girl_will_move_the_hat_to_the_table" "Can_you_move_the_hat_to_the_table?" "left" "right" "pretest_filler" "7/1/2019" "09:58" "left" 1 1810.104 1 "25/05/15" "English" NA NA "male" "Post" "PO" "Pred"
"8j4VM43BeCn8rJgGNRSr36Zqu" 3 "1fillerpost2" "The_princess_will_tickle_the_teddy_bear_with_the_feather" "Can_you_tickle_the_teddy_bear_with_the_feather?" "left" "right" "posttest_filler" "7/1/2019" "09:58" "left" 1 2946.104 1 "25/05/15" "English" NA NA "male" "Post" "PO" "Pred"
"8j4VM43BeCn8rJgGNRSr36Zqu" 4 "4Post2" "The_princess_will_send_the_lion_a_crocodile" "Can_you_send_the_lion_the_crocodile?" "right" "left" "posttest" "7/1/2019" "09:58" "right" 1 1752.104 1 "25/05/15" "English" NA NA "male" "Post" "PO" "Pred"
"8j4VM43BeCn8rJgGNRSr36Zqu" 5 "2post2" "The_girl_will_bring_the_horse_an_ice_cream" "Can_you_bring_the_horse_the_ice_cream?" "right" "left" "posttest" "7/1/2019" "09:58" "right" 1 8727.104 1 "25/05/15" "English" NA NA "male" "Post" "PO" "Pred"
"8j4VM43BeCn8rJgGNRSr36Zqu" 6 "2fillerpost2" "Boots_will_clean_the_chair_with_the_sponge" "Can_you_clean_the_chair_with_the_sponge?" "left" "right" "posttest_filler" "7/1/2019" "09:58" "left" 1 2029.104 1 "25/05/15" "English" NA NA "male" "Post" "PO" "Pred"
"8j4VM43BeCn8rJgGNRSr36Zqu" 7 "3post2" "Boots_will_throw_the_giraffe_a_balloon" "Can_you_throw_the_giraffe_the_balloon?" "left" "right" "posttest" "7/1/2019" "09:58" "left" 1 1581.104 1 "25/05/15" "English" NA NA "male" "Post" "PO" "Pred"
"8j4VM43BeCn8rJgGNRSr36Zqu" 8 "5post2" "The_prince_will_bring_the_turtle_a_cat" "Can_you_bring_the_turtle_the_cat?" "right" "left" "posttest" "7/1/2019" "09:58" "left" 0 1461.104 1 "25/05/15" "English" NA NA "male" "Post" "PO" "Pred"
"8j4VM43BeCn8rJgGNRSr36Zqu" 9 "1Post2" "The_boy_will_send_the_tiger_a_present" "Can_you_send_the_tiger_the_present?" "right" "left" "posttest" "7/1/2019" "09:58" "right" 1 1213.104 1 "25/05/15" "English" NA NA "male" "Post" "PO" "Pred"
"8j4VM43BeCn8rJgGNRSr36Zqu" 10 "6post2" "Dora_the_explorer_will_throw_the_puppy_a_hamster" "Can_you_throw_puppy_the_hamster?" "left" "right" "posttest" "7/1/2019" "09:58" "left" 1 2481.104 1 "25/05/15" "English" NA NA "male" "Post" "PO" "Pred"
"8jgAPlNrNhf7NHal2NhRU5cKP" 1 "2FillerPre2" "The_boy_will_put_the_train_in_the_box" "Can_you_put_the_train_in_the_box?" "right" "left" "pretest_filler" "07/08/2019" "10:40" "right" 1 4765.104 1 "23/03/2015" "English" NA NA "female" "Pre" "DO" "Pred"
"8jgAPlNrNhf7NHal2NhRU5cKP" 2 "3FillerPre2" "The_girl_will_move_the_hat_to_the_table" "Can_you_move_the_hat_to_the_table?" "left" "right" "pretest_filler" "07/08/2019" "10:40" "left" 1 2527.104 1 "23/03/2015" "English" NA NA "female" "Pre" "DO" "Pred"
"8jgAPlNrNhf7NHal2NhRU5cKP" 3 "2Pre2" "The_girl_will_throw_the_elephant_a_clock" "Can_you_throw_the_elephant_the_clock?" "left" "right" "pretest" "07/08/2019" "10:40" "left" 1 4093.104 1 "23/03/2015" "English" NA NA "female" "Pre" "DO" "Pred"
"8jgAPlNrNhf7NHal2NhRU5cKP" 4 "4FillerPre2" "The_king_will_poke_the_jelly_with_the_fork" "Can_you_poke_the_jelly_with_the_fork?" "right" "left" "pretest_filler" "07/08/2019" "10:40" "left" 0 5863.104 1 "23/03/2015" "English" NA NA "female" "Pre" "DO" "Pred"
"8jgAPlNrNhf7NHal2NhRU5cKP" 5 "4Pre2" "The_king_will_throw_the_turtle_a_squirrel" "Can_you_throw_the_turtle_the_squirrel?" "right" "left" "pretest" "07/08/2019" "10:40" "left" 0 1991.104 1 "23/03/2015" "English" NA NA "female" "Pre" "DO" "Pred"
"8jgAPlNrNhf7NHal2NhRU5cKP" 6 "1FillerPre2" "Peppa_pig_will_bounce_the_ball_with_the_bat" "Can_you_bounce_the_ball_with_the_bat?" "left" "right" "pretest_filler" "07/08/2019" "10:40" "right" 0 3963.104 1 "23/03/2015" "English" NA NA "female" "Pre" "DO" "Pred"
"8jgAPlNrNhf7NHal2NhRU5cKP" 7 "3Pre2" "Peppa_Pig_will_send_the_hamster_a_toy" "Can_you_send_the_hamster_the_toy?" "right" "left" "pretest" "07/08/2019" "10:40" "left" 0 2750.104 1 "23/03/2015" "English" NA NA "female" "Pre" "DO" "Pred"
"8jgAPlNrNhf7NHal2NhRU5cKP" 8 "5Pre2" "The_queen_will_send_the_monkey_a_horse" "Can_you_send_the_monkey_the_horse?" "left" "right" "pretest" "07/08/2019" "10:40" "right" 0 5063.104 1 "23/03/2015" "English" NA NA "female" "Pre" "DO" "Pred"
"8jgAPlNrNhf7NHal2NhRU5cKP" 9 "6Pre2" "Emily_elephant_will_bring_the_mouse_a_rabbit" "Can_you_bring_the_mouse_the_rabbit?" "right" "left" "pretest" "07/08/2019" "10:40" "right" 1 1398.104 1 "23/03/2015" "English" NA NA "female" "Pre" "DO" "Pred"
"8jgAPlNrNhf7NHal2NhRU5cKP" 10 "1Pre2" "The_boy_will_bring_the_giraffe_a_cake" "Can_you_bring_the_giraffe_the_cake?" "left" "right" "pretest" "07/08/2019" "10:40" "left" 1 2248.104 1 "23/03/2015" "English" NA NA "female" "Pre" "DO" "Pred"
"9oOzdNvMMW6vNEGycT3BoCh0X" 1 "2FillerPre2" "The_boy_will_put_the_train_in_the_box" "Can_you_put_the_train_in_the_box?" "right" "left" "pretest_filler" "7/18/2019" "12:47" "right" 1 2544.104 1 "06/02/15" "English" NA NA "Female" "Pre" "PO" "NonPred"
"9oOzdNvMMW6vNEGycT3BoCh0X" 2 "3FillerPre2" "The_girl_will_move_the_hat_to_the_table" "Can_you_move_the_hat_to_the_table?" "left" "right" "pretest_filler" "7/18/2019" "12:47" "left" 1 1718.104 1 "06/02/15" "English" NA NA "Female" "Pre" "PO" "NonPred"
"9oOzdNvMMW6vNEGycT3BoCh0X" 3 "4Pre2" "The_king_will_throw_the_turtle_a_squirrel" "Can_you_throw_the_turtle_the_squirrel?" "left" "right" "pretest" "7/18/2019" "12:47" "right" 0 4980.104 1 "06/02/15" "English" NA NA "Female" "Pre" "PO" "NonPred"
"9oOzdNvMMW6vNEGycT3BoCh0X" 4 "1Pre2" "The_boy_will_bring_the_giraffe_a_cake" "Can_you_bring_the_giraffe_the_cake?" "right" "left" "pretest" "7/18/2019" "12:47" "left" 0 2420.104 1 "06/02/15" "English" NA NA "Female" "Pre" "PO" "NonPred"
"9oOzdNvMMW6vNEGycT3BoCh0X" 5 "6Pre2" "Emily_elephant_will_bring_the_mouse_a_rabbit" "Can_you_bring_the_mouse_the_rabbit?" "left" "right" "pretest" "7/18/2019" "12:47" "right" 0 2229.104 1 "06/02/15" "English" NA NA "Female" "Pre" "PO" "NonPred"
"9oOzdNvMMW6vNEGycT3BoCh0X" 6 "5Pre2" "The_queen_will_send_the_monkey_a_horse" "Can_you_send_the_monkey_the_horse?" "left" "right" "pretest" "7/18/2019" "12:47" "right" 0 3395.104 1 "06/02/15" "English" NA NA "Female" "Pre" "PO" "NonPred"
"9oOzdNvMMW6vNEGycT3BoCh0X" 7 "3Pre2" "Peppa_Pig_will_send_the_hamster_a_toy" "Can_you_send_the_hamster_the_toy?" "right" "left" "pretest" "7/18/2019" "12:47" "right" 1 3057.104 1 "06/02/15" "English" NA NA "Female" "Pre" "PO" "NonPred"
"9oOzdNvMMW6vNEGycT3BoCh0X" 8 "1FillerPre2" "Peppa_pig_will_bounce_the_ball_with_the_bat" "Can_you_bounce_the_ball_with_the_bat?" "right" "left" "pretest_filler" "7/18/2019" "12:47" "left" 0 1495.104 1 "06/02/15" "English" NA NA "Female" "Pre" "PO" "NonPred"
"9oOzdNvMMW6vNEGycT3BoCh0X" 9 "2Pre2" "The_girl_will_throw_the_elephant_a_clock" "Can_you_throw_the_elephant_the_clock?" "right" "left" "pretest" "7/18/2019" "12:47" "right" 1 2515.104 1 "06/02/15" "English" NA NA "Female" "Pre" "PO" "NonPred"
"9oOzdNvMMW6vNEGycT3BoCh0X" 10 "4FillerPre2" "The_king_will_poke_the_jelly_with_the_fork" "Can_you_poke_the_jelly_with_the_fork?" "left" "right" "pretest_filler" "7/18/2019" "12:47" "left" 1 1903.104 1 "06/02/15" "English" NA NA "Female" "Pre" "PO" "NonPred"
"abk1MlG2uScorBpf4reBJlCSx" 1 "2FillerPre2" "The_boy_will_put_the_train_in_the_box" "Can_you_put_the_train_in_the_box?" "right" "left" "pretest_filler" "7/17/2019" "11:09" "right" 1 4567.104 1 "15/11/14" "English" NA NA "male" "Post" "DO" "NonPred"
"abk1MlG2uScorBpf4reBJlCSx" 2 "3FillerPre2" "The_girl_will_move_the_hat_to_the_table" "Can_you_move_the_hat_to_the_table?" "left" "right" "pretest_filler" "7/17/2019" "11:09" "left" 1 2246.104 2 "15/11/14" "English" NA NA "male" "Post" "DO" "NonPred"
"abk1MlG2uScorBpf4reBJlCSx" 3 "1fillerpost2" "The_princess_will_tickle_the_teddy_bear_with_the_feather" "Can_you_tickle_the_teddy_bear_with_the_feather?" "left" "right" "posttest_filler" "7/17/2019" "11:09" "left" 1 5478.104 1 "15/11/14" "English" NA NA "male" "Post" "DO" "NonPred"
"abk1MlG2uScorBpf4reBJlCSx" 4 "4Post2" "The_princess_will_send_the_lion_a_crocodile" "Can_you_send_the_lion_the_crocodile?" "right" "left" "posttest" "7/17/2019" "11:09" "right" 1 22148.104 1 "15/11/14" "English" NA NA "male" "Post" "DO" "NonPred"
"abk1MlG2uScorBpf4reBJlCSx" 5 "2fillerpost2" "Boots_will_clean_the_chair_with_the_sponge" "Can_you_clean_the_chair_with_the_sponge?" "left" "right" "posttest_filler" "7/17/2019" "11:09" "left" 1 2631.104 1 "15/11/14" "English" NA NA "male" "Post" "DO" "NonPred"
"abk1MlG2uScorBpf4reBJlCSx" 6 "6post2" "Dora_the_explorer_will_throw_the_puppy_a_hamster" "Can_you_throw_puppy_the_hamster?" "left" "right" "posttest" "7/17/2019" "11:09" "left" 1 1628.104 1 "15/11/14" "English" NA NA "male" "Post" "DO" "NonPred"
"abk1MlG2uScorBpf4reBJlCSx" 7 "5post2" "The_prince_will_bring_the_turtle_a_cat" "Can_you_bring_the_turtle_the_cat?" "right" "left" "posttest" "7/17/2019" "11:09" "right" 1 3194.104 1 "15/11/14" "English" NA NA "male" "Post" "DO" "NonPred"
"abk1MlG2uScorBpf4reBJlCSx" 8 "1Post2" "The_boy_will_send_the_tiger_a_present" "Can_you_send_the_tiger_the_present?" "right" "left" "posttest" "7/17/2019" "11:09" "right" 1 1318.104 1 "15/11/14" "English" NA NA "male" "Post" "DO" "NonPred"
"abk1MlG2uScorBpf4reBJlCSx" 9 "2post2" "The_girl_will_bring_the_horse_an_ice_cream" "Can_you_bring_the_horse_the_ice_cream?" "left" "right" "posttest" "7/17/2019" "11:09" "left" 1 1781.104 1 "15/11/14" "English" NA NA "male" "Post" "DO" "NonPred"
"abk1MlG2uScorBpf4reBJlCSx" 10 "3post2" "Boots_will_throw_the_giraffe_a_balloon" "Can_you_throw_the_giraffe_the_balloon?" "right" "left" "posttest" "7/17/2019" "11:09" "right" 1 2619.104 1 "15/11/14" "English" NA NA "male" "Post" "DO" "NonPred"
"ADXIiawnQr5yIJGK7wAHFuoWo" 1 "2FillerPre2" "The_boy_will_put_the_train_in_the_box" "Can_you_put_the_train_in_the_box?" "right" "left" "pretest_filler" "4/17/2019" "12:56" "right" 1 2464.104 1 "04/09/2014" "English" NA NA "male" "Post" "DO" "Pred"
"ADXIiawnQr5yIJGK7wAHFuoWo" 2 "3FillerPre2" "The_girl_will_move_the_hat_to_the_table" "Can_you_move_the_hat_to_the_table?" "left" "right" "pretest_filler" "4/17/2019" "12:56" "left" 1 1129.104 1 "04/09/2014" "English" NA NA "male" "Post" "DO" "Pred"
"ADXIiawnQr5yIJGK7wAHFuoWo" 3 "2fillerpost2" "Boots_will_clean_the_chair_with_the_sponge" "Can_you_clean_the_chair_with_the_sponge?" "left" "right" "posttest_filler" "4/17/2019" "12:56" "left" 1 4206.104 1 "04/09/2014" "English" NA NA "male" "Post" "DO" "Pred"
"ADXIiawnQr5yIJGK7wAHFuoWo" 4 "4Post2" "The_princess_will_send_the_lion_a_crocodile" "Can_you_send_the_lion_the_crocodile?" "left" "right" "posttest" "4/17/2019" "12:56" "left" 1 2738.104 1 "04/09/2014" "English" NA NA "male" "Post" "DO" "Pred"
"ADXIiawnQr5yIJGK7wAHFuoWo" 5 "2post2" "The_girl_will_bring_the_horse_an_ice_cream" "Can_you_bring_the_horse_the_ice_cream?" "right" "left" "posttest" "4/17/2019" "12:56" "left" 0 1565.104 1 "04/09/2014" "English" NA NA "male" "Post" "DO" "Pred"
"ADXIiawnQr5yIJGK7wAHFuoWo" 6 "1Post2" "The_boy_will_send_the_tiger_a_present" "Can_you_send_the_tiger_the_present?" "right" "left" "posttest" "4/17/2019" "12:56" "left" 0 1227.104 1 "04/09/2014" "English" NA NA "male" "Post" "DO" "Pred"
"ADXIiawnQr5yIJGK7wAHFuoWo" 7 "1fillerpost2" "The_princess_will_tickle_the_teddy_bear_with_the_feather" "Can_you_tickle_the_teddy_bear_with_the_feather?" "right" "left" "posttest_filler" "4/17/2019" "12:56" "left" 0 2245.104 1 "04/09/2014" "English" NA NA "male" "Post" "DO" "Pred"
"ADXIiawnQr5yIJGK7wAHFuoWo" 8 "6post2" "Dora_the_explorer_will_throw_the_puppy_a_hamster" "Can_you_throw_puppy_the_hamster?" "left" "right" "posttest" "4/17/2019" "12:56" "left" 1 3489.104 1 "04/09/2014" "English" NA NA "male" "Post" "DO" "Pred"
"ADXIiawnQr5yIJGK7wAHFuoWo" 9 "5post2" "The_prince_will_bring_the_turtle_a_cat" "Can_you_bring_the_turtle_the_cat?" "right" "left" "posttest" "4/17/2019" "12:56" "left" 0 1114.104 1 "04/09/2014" "English" NA NA "male" "Post" "DO" "Pred"
"ADXIiawnQr5yIJGK7wAHFuoWo" 10 "3post2" "Boots_will_throw_the_giraffe_a_balloon" "Can_you_throw_the_giraffe_the_balloon?" "left" "right" "posttest" "4/17/2019" "12:56" "right" 0 2875.104 1 "04/09/2014" "English" NA NA "male" "Post" "DO" "Pred"
"AvrWsudy6bn6efmJizjfrJFJh" 1 "2FillerPre2" "The_boy_will_put_the_train_in_the_box" "Can_you_put_the_train_in_the_box?" "right" "left" "pretest_filler" "6/25/2019" "09:21" "right" 1 2394.104 1 "25/07/2014" "English" NA NA "female" "Post" "PO" "Pred"
"AvrWsudy6bn6efmJizjfrJFJh" 2 "3FillerPre2" "The_girl_will_move_the_hat_to_the_table" "Can_you_move_the_hat_to_the_table?" "left" "right" "pretest_filler" "6/25/2019" "09:21" "left" 1 1407.104 1 "25/07/2014" "English" NA NA "female" "Post" "PO" "Pred"
"AvrWsudy6bn6efmJizjfrJFJh" 3 "3post2" "Boots_will_throw_the_giraffe_a_balloon" "Can_you_throw_the_giraffe_the_balloon?" "right" "left" "posttest" "6/25/2019" "09:21" "left" 0 5501.104 1 "25/07/2014" "English" NA NA "female" "Post" "PO" "Pred"
"AvrWsudy6bn6efmJizjfrJFJh" 4 "4Post2" "The_princess_will_send_the_lion_a_crocodile" "Can_you_send_the_lion_the_crocodile?" "left" "right" "posttest" "6/25/2019" "09:21" "right" 0 3849.104 1 "25/07/2014" "English" NA NA "female" "Post" "PO" "Pred"
"AvrWsudy6bn6efmJizjfrJFJh" 5 "1fillerpost2" "The_princess_will_tickle_the_teddy_bear_with_the_feather" "Can_you_tickle_the_teddy_bear_with_the_feather?" "left" "right" "posttest_filler" "6/25/2019" "09:21" "left" 1 6931.104 1 "25/07/2014" "English" NA NA "female" "Post" "PO" "Pred"
"AvrWsudy6bn6efmJizjfrJFJh" 6 "6post2" "Dora_the_explorer_will_throw_the_puppy_a_hamster" "Can_you_throw_puppy_the_hamster?" "right" "left" "posttest" "6/25/2019" "09:21" "left" 0 946.104 1 "25/07/2014" "English" NA NA "female" "Post" "PO" "Pred"
"AvrWsudy6bn6efmJizjfrJFJh" 7 "2post2" "The_girl_will_bring_the_horse_an_ice_cream" "Can_you_bring_the_horse_the_ice_cream?" "right" "left" "posttest" "6/25/2019" "09:21" "left" 0 1862.104 1 "25/07/2014" "English" NA NA "female" "Post" "PO" "Pred"
"AvrWsudy6bn6efmJizjfrJFJh" 8 "5post2" "The_prince_will_bring_the_turtle_a_cat" "Can_you_bring_the_turtle_the_cat?" "left" "right" "posttest" "6/25/2019" "09:21" "right" 0 1812.104 1 "25/07/2014" "English" NA NA "female" "Post" "PO" "Pred"
"AvrWsudy6bn6efmJizjfrJFJh" 9 "1Post2" "The_boy_will_send_the_tiger_a_present" "Can_you_send_the_tiger_the_present?" "left" "right" "posttest" "6/25/2019" "09:21" "right" 0 1480.104 1 "25/07/2014" "English" NA NA "female" "Post" "PO" "Pred"
"AvrWsudy6bn6efmJizjfrJFJh" 10 "2fillerpost2" "Boots_will_clean_the_chair_with_the_sponge" "Can_you_clean_the_chair_with_the_sponge?" "right" "left" "posttest_filler" "6/25/2019" "09:21" "right" 1 1698.104 1 "25/07/2014" "English" NA NA "female" "Post" "PO" "Pred"
"AX082cIs5N5jjZORvfNQmWpNp" 1 "2FillerPre2" "The_boy_will_put_the_train_in_the_box" "Can_you_put_the_train_in_the_box?" "right" "left" "pretest_filler" "4/24/2019" "11:53" "right" 1 4750.104 1 "25/09/2014" "English" NA NA "female" "Post" "PO" "Pred"
"AX082cIs5N5jjZORvfNQmWpNp" 2 "3FillerPre2" "The_girl_will_move_the_hat_to_the_table" "Can_you_move_the_hat_to_the_table?" "left" "right" "pretest_filler" "4/24/2019" "11:53" "left" 1 3996.104 1 "25/09/2014" "English" NA NA "female" "Post" "PO" "Pred"
"AX082cIs5N5jjZORvfNQmWpNp" 3 "5post2" "The_prince_will_bring_the_turtle_a_cat" "Can_you_bring_the_turtle_the_cat?" "right" "left" "posttest" "4/24/2019" "11:53" "left" 0 13336.104 1 "25/09/2014" "English" NA NA "female" "Post" "PO" "Pred"
"AX082cIs5N5jjZORvfNQmWpNp" 4 "3post2" "Boots_will_throw_the_giraffe_a_balloon" "Can_you_throw_the_giraffe_the_balloon?" "right" "left" "posttest" "4/24/2019" "11:53" "right" 1 4860.104 1 "25/09/2014" "English" NA NA "female" "Post" "PO" "Pred"
"AX082cIs5N5jjZORvfNQmWpNp" 5 "6post2" "Dora_the_explorer_will_throw_the_puppy_a_hamster" "Can_you_throw_puppy_the_hamster?" "left" "right" "posttest" "4/24/2019" "11:53" "right" 0 5585.104 1 "25/09/2014" "English" NA NA "female" "Post" "PO" "Pred"
"AX082cIs5N5jjZORvfNQmWpNp" 6 "2fillerpost2" "Boots_will_clean_the_chair_with_the_sponge" "Can_you_clean_the_chair_with_the_sponge?" "left" "right" "posttest_filler" "4/24/2019" "11:53" "left" 1 6420.104 1 "25/09/2014" "English" NA NA "female" "Post" "PO" "Pred"
"AX082cIs5N5jjZORvfNQmWpNp" 7 "4Post2" "The_princess_will_send_the_lion_a_crocodile" "Can_you_send_the_lion_the_crocodile?" "left" "right" "posttest" "4/24/2019" "11:53" "left" 1 3211.104 1 "25/09/2014" "English" NA NA "female" "Post" "PO" "Pred"
"AX082cIs5N5jjZORvfNQmWpNp" 8 "1Post2" "The_boy_will_send_the_tiger_a_present" "Can_you_send_the_tiger_the_present?" "right" "left" "posttest" "4/24/2019" "11:53" "right" 1 1907.104 1 "25/09/2014" "English" NA NA "female" "Post" "PO" "Pred"
"AX082cIs5N5jjZORvfNQmWpNp" 9 "2post2" "The_girl_will_bring_the_horse_an_ice_cream" "Can_you_bring_the_horse_the_ice_cream?" "right" "left" "posttest" "4/24/2019" "11:53" "right" 1 1844.104 1 "25/09/2014" "English" NA NA "female" "Post" "PO" "Pred"
"AX082cIs5N5jjZORvfNQmWpNp" 10 "1fillerpost2" "The_princess_will_tickle_the_teddy_bear_with_the_feather" "Can_you_tickle_the_teddy_bear_with_the_feather?" "left" "right" "posttest_filler" "4/24/2019" "11:53" "left" 1 5884.104 1 "25/09/2014" "English" NA NA "female" "Post" "PO" "Pred"
"CcaRecvQJxLPFcSqlx9GAxcDv" 1 "2FillerPre2" "The_boy_will_put_the_train_in_the_box" "Can_you_put_the_train_in_the_box?" "right" "left" "pretest_filler" "7/17/2019" "10:36" "right" 1 1286.104 1 "24/09/2014" "English" NA NA "male" "Post" "DO" "Pred"
"CcaRecvQJxLPFcSqlx9GAxcDv" 2 "3FillerPre2" "The_girl_will_move_the_hat_to_the_table" "Can_you_move_the_hat_to_the_table?" "left" "right" "pretest_filler" "7/17/2019" "10:36" "left" 1 1430.104 1 "24/09/2014" "English" NA NA "male" "Post" "DO" "Pred"
"CcaRecvQJxLPFcSqlx9GAxcDv" 3 "2fillerpost2" "Boots_will_clean_the_chair_with_the_sponge" "Can_you_clean_the_chair_with_the_sponge?" "left" "right" "posttest_filler" "7/17/2019" "10:36" "left" 1 8393.104 1 "24/09/2014" "English" NA NA "male" "Post" "DO" "Pred"
"CcaRecvQJxLPFcSqlx9GAxcDv" 4 "5post2" "The_prince_will_bring_the_turtle_a_cat" "Can_you_bring_the_turtle_the_cat?" "right" "left" "posttest" "7/17/2019" "10:36" "left" 0 2707.104 1 "24/09/2014" "English" NA NA "male" "Post" "DO" "Pred"
"CcaRecvQJxLPFcSqlx9GAxcDv" 5 "1fillerpost2" "The_princess_will_tickle_the_teddy_bear_with_the_feather" "Can_you_tickle_the_teddy_bear_with_the_feather?" "left" "right" "posttest_filler" "7/17/2019" "10:36" "left" 1 7210.104 1 "24/09/2014" "English" NA NA "male" "Post" "DO" "Pred"
"CcaRecvQJxLPFcSqlx9GAxcDv" 6 "6post2" "Dora_the_explorer_will_throw_the_puppy_a_hamster" "Can_you_throw_puppy_the_hamster?" "left" "right" "posttest" "7/17/2019" "10:36" "right" 0 3236.104 1 "24/09/2014" "English" NA NA "male" "Post" "DO" "Pred"
"CcaRecvQJxLPFcSqlx9GAxcDv" 7 "2post2" "The_girl_will_bring_the_horse_an_ice_cream" "Can_you_bring_the_horse_the_ice_cream?" "right" "left" "posttest" "7/17/2019" "10:36" "left" 0 2471.104 1 "24/09/2014" "English" NA NA "male" "Post" "DO" "Pred"
"CcaRecvQJxLPFcSqlx9GAxcDv" 8 "4Post2" "The_princess_will_send_the_lion_a_crocodile" "Can_you_send_the_lion_the_crocodile?" "right" "left" "posttest" "7/17/2019" "10:36" "left" 0 1836.104 1 "24/09/2014" "English" NA NA "male" "Post" "DO" "Pred"
"CcaRecvQJxLPFcSqlx9GAxcDv" 9 "3post2" "Boots_will_throw_the_giraffe_a_balloon" "Can_you_throw_the_giraffe_the_balloon?" "left" "right" "posttest" "7/17/2019" "10:36" "right" 0 1435.104 1 "24/09/2014" "English" NA NA "male" "Post" "DO" "Pred"
"CcaRecvQJxLPFcSqlx9GAxcDv" 10 "1Post2" "The_boy_will_send_the_tiger_a_present" "Can_you_send_the_tiger_the_present?" "right" "left" "posttest" "7/17/2019" "10:36" "left" 0 1609.104 1 "24/09/2014" "English" NA NA "male" "Post" "DO" "Pred"
"cLQYf22jOn4YeuPZXT1eHM053" 1 "2FillerPre2" "The_boy_will_put_the_train_in_the_box" "Can_you_put_the_train_in_the_box?" "right" "left" "pretest_filler" "06/05/2019" "14:35" "right" 1 2603.104 1 "03/03/2015" "English" "Portugese" "language delay, but great comprehension, " "male" "Pre" "DO" "NonPred"
"cLQYf22jOn4YeuPZXT1eHM053" 2 "3FillerPre2" "The_girl_will_move_the_hat_to_the_table" "Can_you_move_the_hat_to_the_table?" "left" "right" "pretest_filler" "06/05/2019" "14:35" "left" 1 2033.104 1 "03/03/2015" "English" "Portugese" "" "male" "Pre" "DO" "NonPred"
"cLQYf22jOn4YeuPZXT1eHM053" 3 "4FillerPre2" "The_king_will_poke_the_jelly_with_the_fork" "Can_you_poke_the_jelly_with_the_fork?" "right" "left" "pretest_filler" "06/05/2019" "14:35" "right" 1 2829.104 1 "03/03/2015" "English" "Portugese" "" "male" "Pre" "DO" "NonPred"
"cLQYf22jOn4YeuPZXT1eHM053" 4 "4Pre2" "The_king_will_throw_the_turtle_a_squirrel" "Can_you_throw_the_turtle_the_squirrel?" "left" "right" "pretest" "06/05/2019" "14:35" "right" 0 3997.104 1 "03/03/2015" "English" "Portugese" "" "male" "Pre" "DO" "NonPred"
"cLQYf22jOn4YeuPZXT1eHM053" 5 "2Pre2" "The_girl_will_throw_the_elephant_a_clock" "Can_you_throw_the_elephant_the_clock?" "right" "left" "pretest" "06/05/2019" "14:35" "left" 0 3963.104 1 "03/03/2015" "English" "Portugese" "" "male" "Pre" "DO" "NonPred"
"cLQYf22jOn4YeuPZXT1eHM053" 6 "1FillerPre2" "Peppa_pig_will_bounce_the_ball_with_the_bat" "Can_you_bounce_the_ball_with_the_bat?" "right" "left" "pretest_filler" "06/05/2019" "14:35" "left" 0 3332.104 1 "03/03/2015" "English" "Portugese" "" "male" "Pre" "DO" "NonPred"
"cLQYf22jOn4YeuPZXT1eHM053" 7 "6Pre2" "Emily_elephant_will_bring_the_mouse_a_rabbit" "Can_you_bring_the_mouse_the_rabbit?" "right" "left" "pretest" "06/05/2019" "14:35" "left" 0 3394.104 1 "03/03/2015" "English" "Portugese" "" "male" "Pre" "DO" "NonPred"
"cLQYf22jOn4YeuPZXT1eHM053" 8 "3Pre2" "Peppa_Pig_will_send_the_hamster_a_toy" "Can_you_send_the_hamster_the_toy?" "left" "right" "pretest" "06/05/2019" "14:35" "left" 1 1744.104 1 "03/03/2015" "English" "Portugese" "" "male" "Pre" "DO" "NonPred"
"cLQYf22jOn4YeuPZXT1eHM053" 9 "1Pre2" "The_boy_will_bring_the_giraffe_a_cake" "Can_you_bring_the_giraffe_the_cake?" "left" "right" "pretest" "06/05/2019" "14:35" "left" 1 1478.104 1 "03/03/2015" "English" "Portugese" "" "male" "Pre" "DO" "NonPred"
"cLQYf22jOn4YeuPZXT1eHM053" 10 "5Pre2" "The_queen_will_send_the_monkey_a_horse" "Can_you_send_the_monkey_the_horse?" "left" "right" "pretest" "06/05/2019" "14:35" "right" 0 4063.104 1 "03/03/2015" "English" "Portugese" "" "male" "Pre" "DO" "NonPred"
"Co8n5Rdiwg7ItIlIvt1Y8UAh8" 1 "2FillerPre2" "The_boy_will_put_the_train_in_the_box" "Can_you_put_the_train_in_the_box?" "right" "left" "pretest_filler" "07/08/2019" "10:58" "right" 1 2438.104 1 "24/05/2019" "English" NA NA "male" "Post" "DO" "Pred"
"Co8n5Rdiwg7ItIlIvt1Y8UAh8" 2 "3FillerPre2" "The_girl_will_move_the_hat_to_the_table" "Can_you_move_the_hat_to_the_table?" "left" "right" "pretest_filler" "07/08/2019" "10:58" "left" 1 1750.104 1 "24/05/2019" "English" NA NA "male" "Post" "DO" "Pred"
"Co8n5Rdiwg7ItIlIvt1Y8UAh8" 3 "4Post2" "The_princess_will_send_the_lion_a_crocodile" "Can_you_send_the_lion_the_crocodile?" "right" "left" "posttest" "07/08/2019" "10:58" "right" 1 2472.104 1 "24/05/2019" "English" NA NA "male" "Post" "DO" "Pred"
"Co8n5Rdiwg7ItIlIvt1Y8UAh8" 4 "2fillerpost2" "Boots_will_clean_the_chair_with_the_sponge" "Can_you_clean_the_chair_with_the_sponge?" "left" "right" "posttest_filler" "07/08/2019" "10:58" "left" 1 3045.104 1 "24/05/2019" "English" NA NA "male" "Post" "DO" "Pred"
"Co8n5Rdiwg7ItIlIvt1Y8UAh8" 5 "1fillerpost2" "The_princess_will_tickle_the_teddy_bear_with_the_feather" "Can_you_tickle_the_teddy_bear_with_the_feather?" "right" "left" "posttest_filler" "07/08/2019" "10:58" "right" 1 5763.104 1 "24/05/2019" "English" NA NA "male" "Post" "DO" "Pred"
"Co8n5Rdiwg7ItIlIvt1Y8UAh8" 6 "1Post2" "The_boy_will_send_the_tiger_a_present" "Can_you_send_the_tiger_the_present?" "right" "left" "posttest" "07/08/2019" "10:58" "right" 1 1716.104 1 "24/05/2019" "English" NA NA "male" "Post" "DO" "Pred"
"Co8n5Rdiwg7ItIlIvt1Y8UAh8" 7 "3post2" "Boots_will_throw_the_giraffe_a_balloon" "Can_you_throw_the_giraffe_the_balloon?" "left" "right" "posttest" "07/08/2019" "10:58" "left" 1 3938.104 1 "24/05/2019" "English" NA NA "male" "Post" "DO" "Pred"
"Co8n5Rdiwg7ItIlIvt1Y8UAh8" 8 "2post2" "The_girl_will_bring_the_horse_an_ice_cream" "Can_you_bring_the_horse_the_ice_cream?" "left" "right" "posttest" "07/08/2019" "10:58" "left" 1 1412.104 1 "24/05/2019" "English" NA NA "male" "Post" "DO" "Pred"
"Co8n5Rdiwg7ItIlIvt1Y8UAh8" 9 "6post2" "Dora_the_explorer_will_throw_the_puppy_a_hamster" "Can_you_throw_puppy_the_hamster?" "left" "right" "posttest" "07/08/2019" "10:58" "left" 1 2241.104 1 "24/05/2019" "English" NA NA "male" "Post" "DO" "Pred"
"Co8n5Rdiwg7ItIlIvt1Y8UAh8" 10 "5post2" "The_prince_will_bring_the_turtle_a_cat" "Can_you_bring_the_turtle_the_cat?" "right" "left" "posttest" "07/08/2019" "10:58" "right" 1 1951.104 1 "24/05/2019" "English" NA NA "male" "Post" "DO" "Pred"
"d2mEVFnLVsitRIRfkox2hIgTF" 1 "2FillerPre2" "The_boy_will_put_the_train_in_the_box" "Can_you_put_the_train_in_the_box?" "right" "left" "pretest_filler" "07/02/2019" "12:52" "right" 1 2424.104 1 "06/09/2014" "English" NA NA "male" "Pre" "DO" "NonPred"
"d2mEVFnLVsitRIRfkox2hIgTF" 2 "3FillerPre2" "The_girl_will_move_the_hat_to_the_table" "Can_you_move_the_hat_to_the_table?" "left" "right" "pretest_filler" "07/02/2019" "12:52" "left" 1 2170.104 1 "06/09/2014" "English" NA NA "male" "Pre" "DO" "NonPred"
"d2mEVFnLVsitRIRfkox2hIgTF" 3 "1FillerPre2" "Peppa_pig_will_bounce_the_ball_with_the_bat" "Can_you_bounce_the_ball_with_the_bat?" "right" "left" "pretest_filler" "07/02/2019" "12:52" "left" 0 3981.104 1 "06/09/2014" "English" NA NA "male" "Pre" "DO" "NonPred"
"d2mEVFnLVsitRIRfkox2hIgTF" 4 "4Pre2" "The_king_will_throw_the_turtle_a_squirrel" "Can_you_throw_the_turtle_the_squirrel?" "right" "left" "pretest" "07/02/2019" "12:52" "right" 1 2369.104 1 "06/09/2014" "English" NA NA "male" "Pre" "DO" "NonPred"
"d2mEVFnLVsitRIRfkox2hIgTF" 5 "6Pre2" "Emily_elephant_will_bring_the_mouse_a_rabbit" "Can_you_bring_the_mouse_the_rabbit?" "right" "left" "pretest" "07/02/2019" "12:52" "right" 1 2080.104 1 "06/09/2014" "English" NA NA "male" "Pre" "DO" "NonPred"
"d2mEVFnLVsitRIRfkox2hIgTF" 6 "3Pre2" "Peppa_Pig_will_send_the_hamster_a_toy" "Can_you_send_the_hamster_the_toy?" "left" "right" "pretest" "07/02/2019" "12:52" "left" 1 2524.104 1 "06/09/2014" "English" NA NA "male" "Pre" "DO" "NonPred"
"d2mEVFnLVsitRIRfkox2hIgTF" 7 "4FillerPre2" "The_king_will_poke_the_jelly_with_the_fork" "Can_you_poke_the_jelly_with_the_fork?" "left" "right" "pretest_filler" "07/02/2019" "12:52" "right" 0 1753.104 1 "06/09/2014" "English" NA NA "male" "Pre" "DO" "NonPred"
"d2mEVFnLVsitRIRfkox2hIgTF" 8 "2Pre2" "The_girl_will_throw_the_elephant_a_clock" "Can_you_throw_the_elephant_the_clock?" "left" "right" "pretest" "07/02/2019" "12:52" "left" 1 2316.104 1 "06/09/2014" "English" NA NA "male" "Pre" "DO" "NonPred"
"d2mEVFnLVsitRIRfkox2hIgTF" 9 "5Pre2" "The_queen_will_send_the_monkey_a_horse" "Can_you_send_the_monkey_the_horse?" "right" "left" "pretest" "07/02/2019" "12:52" "right" 1 1815.104 1 "06/09/2014" "English" NA NA "male" "Pre" "DO" "NonPred"
"d2mEVFnLVsitRIRfkox2hIgTF" 10 "1Pre2" "The_boy_will_bring_the_giraffe_a_cake" "Can_you_bring_the_giraffe_the_cake?" "left" "right" "pretest" "07/02/2019" "12:52" "left" 1 1633.104 1 "06/09/2014" "English" NA NA "male" "Pre" "DO" "NonPred"
"DuCpKX1bRkSFGjBv9kD8PDads" 1 "2FillerPre2" "The_boy_will_put_the_train_in_the_box" "Can_you_put_the_train_in_the_box?" "right" "left" "pretest_filler" "6/17/2019" "10:08" "right" 1 2120.104 1 "13/06/2019" "English" NA NA "female" "Post" "PO" "NonPred"
"DuCpKX1bRkSFGjBv9kD8PDads" 2 "3FillerPre2" "The_girl_will_move_the_hat_to_the_table" "Can_you_move_the_hat_to_the_table?" "left" "right" "pretest_filler" "6/17/2019" "10:08" "left" 1 1351.104 1 "13/06/2019" "English" NA NA "female" "Post" "PO" "NonPred"
"DuCpKX1bRkSFGjBv9kD8PDads" 3 "5post2" "The_prince_will_bring_the_turtle_a_cat" "Can_you_bring_the_turtle_the_cat?" "left" "right" "posttest" "6/17/2019" "10:08" "right" 0 3243.104 1 "13/06/2019" "English" NA NA "female" "Post" "PO" "NonPred"
"DuCpKX1bRkSFGjBv9kD8PDads" 4 "2fillerpost2" "Boots_will_clean_the_chair_with_the_sponge" "Can_you_clean_the_chair_with_the_sponge?" "left" "right" "posttest_filler" "6/17/2019" "10:08" "left" 1 3337.104 1 "13/06/2019" "English" NA NA "female" "Post" "PO" "NonPred"
"DuCpKX1bRkSFGjBv9kD8PDads" 5 "6post2" "Dora_the_explorer_will_throw_the_puppy_a_hamster" "Can_you_throw_puppy_the_hamster?" "right" "left" "posttest" "6/17/2019" "10:08" "left" 0 2659.104 1 "13/06/2019" "English" NA NA "female" "Post" "PO" "NonPred"
"DuCpKX1bRkSFGjBv9kD8PDads" 6 "3post2" "Boots_will_throw_the_giraffe_a_balloon" "Can_you_throw_the_giraffe_the_balloon?" "left" "right" "posttest" "6/17/2019" "10:08" "right" 0 2900.104 1 "13/06/2019" "English" NA NA "female" "Post" "PO" "NonPred"
"DuCpKX1bRkSFGjBv9kD8PDads" 7 "4Post2" "The_princess_will_send_the_lion_a_crocodile" "Can_you_send_the_lion_the_crocodile?" "right" "left" "posttest" "6/17/2019" "10:08" "left" 0 1658.104 1 "13/06/2019" "English" NA NA "female" "Post" "PO" "NonPred"
"DuCpKX1bRkSFGjBv9kD8PDads" 8 "2post2" "The_girl_will_bring_the_horse_an_ice_cream" "Can_you_bring_the_horse_the_ice_cream?" "right" "left" "posttest" "6/17/2019" "10:08" "left" 0 3676.104 1 "13/06/2019" "English" NA NA "female" "Post" "PO" "NonPred"
"DuCpKX1bRkSFGjBv9kD8PDads" 9 "1Post2" "The_boy_will_send_the_tiger_a_present" "Can_you_send_the_tiger_the_present?" "right" "left" "posttest" "6/17/2019" "10:08" "left" 0 2867.104 1 "13/06/2019" "English" NA NA "female" "Post" "PO" "NonPred"
"DuCpKX1bRkSFGjBv9kD8PDads" 10 "1fillerpost2" "The_princess_will_tickle_the_teddy_bear_with_the_feather" "Can_you_tickle_the_teddy_bear_with_the_feather?" "left" "right" "posttest_filler" "6/17/2019" "10:08" "left" 1 2752.104 1 "13/06/2019" "English" NA NA "female" "Post" "PO" "NonPred"
"E4eEjp8jdT9dLuiNCdUwCyceJ" 1 "2FillerPre2" "The_boy_will_put_the_train_in_the_box" "Can_you_put_the_train_in_the_box?" "right" "left" "pretest_filler" "7/17/2019" "13:48" "right" 1 6553.104 1 "06/01/2014" "English" NA NA "female" "Pre" "PO" "Pred"
"E4eEjp8jdT9dLuiNCdUwCyceJ" 2 "3FillerPre2" "The_girl_will_move_the_hat_to_the_table" "Can_you_move_the_hat_to_the_table?" "left" "right" "pretest_filler" "7/17/2019" "13:48" "left" 1 2024.104 1 "06/01/2014" "English" NA NA "female" "Pre" "PO" "Pred"
"E4eEjp8jdT9dLuiNCdUwCyceJ" 3 "6Pre2" "Emily_elephant_will_bring_the_mouse_a_rabbit" "Can_you_bring_the_mouse_the_rabbit?" "left" "right" "pretest" "7/17/2019" "13:48" "right" 0 4252.104 1 "06/01/2014" "English" NA NA "female" "Pre" "PO" "Pred"
"E4eEjp8jdT9dLuiNCdUwCyceJ" 4 "1FillerPre2" "Peppa_pig_will_bounce_the_ball_with_the_bat" "Can_you_bounce_the_ball_with_the_bat?" "right" "left" "pretest_filler" "7/17/2019" "13:48" "right" 1 6720.104 1 "06/01/2014" "English" NA NA "female" "Pre" "PO" "Pred"
"E4eEjp8jdT9dLuiNCdUwCyceJ" 5 "4Pre2" "The_king_will_throw_the_turtle_a_squirrel" "Can_you_throw_the_turtle_the_squirrel?" "right" "left" "pretest" "7/17/2019" "13:48" "left" 0 2417.104 1 "06/01/2014" "English" NA NA "female" "Pre" "PO" "Pred"
"E4eEjp8jdT9dLuiNCdUwCyceJ" 6 "2Pre2" "The_girl_will_throw_the_elephant_a_clock" "Can_you_throw_the_elephant_the_clock?" "left" "right" "pretest" "7/17/2019" "13:48" "right" 0 2818.104 1 "06/01/2014" "English" NA NA "female" "Pre" "PO" "Pred"
"E4eEjp8jdT9dLuiNCdUwCyceJ" 7 "1Pre2" "The_boy_will_bring_the_giraffe_a_cake" "Can_you_bring_the_giraffe_the_cake?" "right" "left" "pretest" "7/17/2019" "13:48" "left" 0 3172.104 1 "06/01/2014" "English" NA NA "female" "Pre" "PO" "Pred"
"E4eEjp8jdT9dLuiNCdUwCyceJ" 8 "4FillerPre2" "The_king_will_poke_the_jelly_with_the_fork" "Can_you_poke_the_jelly_with_the_fork?" "right" "left" "pretest_filler" "7/17/2019" "13:48" "right" 1 5174.104 1 "06/01/2014" "English" NA NA "female" "Pre" "PO" "Pred"
"E4eEjp8jdT9dLuiNCdUwCyceJ" 9 "5Pre2" "The_queen_will_send_the_monkey_a_horse" "Can_you_send_the_monkey_the_horse?" "left" "right" "pretest" "7/17/2019" "13:48" "right" 0 3373.104 1 "06/01/2014" "English" NA NA "female" "Pre" "PO" "Pred"
"E4eEjp8jdT9dLuiNCdUwCyceJ" 10 "3Pre2" "Peppa_Pig_will_send_the_hamster_a_toy" "Can_you_send_the_hamster_the_toy?" "left" "right" "pretest" "7/17/2019" "13:48" "left" 1 2336.104 1 "06/01/2014" "English" NA NA "female" "Pre" "PO" "Pred"
"EgtcuHoFCmCQrm1VqcGgZY6JI" 1 "2FillerPre2" "The_boy_will_put_the_train_in_the_box" "Can_you_put_the_train_in_the_box?" "right" "left" "pretest_filler" "7/17/2019" "10:58" "right" 1 2369.104 1 "07/11/2014" "English" NA NA "female" "Pre" "DO" "NonPred"
"EgtcuHoFCmCQrm1VqcGgZY6JI" 2 "3FillerPre2" "The_girl_will_move_the_hat_to_the_table" "Can_you_move_the_hat_to_the_table?" "left" "right" "pretest_filler" "7/17/2019" "10:58" "left" 1 1569.104 1 "07/11/2014" "English" NA NA "female" "Pre" "DO" "NonPred"
"EgtcuHoFCmCQrm1VqcGgZY6JI" 3 "2Pre2" "The_girl_will_throw_the_elephant_a_clock" "Can_you_throw_the_elephant_the_clock?" "right" "left" "pretest" "7/17/2019" "10:58" "left" 0 2953.104 1 "07/11/2014" "English" NA NA "female" "Pre" "DO" "NonPred"
"EgtcuHoFCmCQrm1VqcGgZY6JI" 4 "1FillerPre2" "Peppa_pig_will_bounce_the_ball_with_the_bat" "Can_you_bounce_the_ball_with_the_bat?" "left" "right" "pretest_filler" "7/17/2019" "10:58" "right" 0 1132.104 1 "07/11/2014" "English" NA NA "female" "Pre" "DO" "NonPred"
"EgtcuHoFCmCQrm1VqcGgZY6JI" 5 "3Pre2" "Peppa_Pig_will_send_the_hamster_a_toy" "Can_you_send_the_hamster_the_toy?" "right" "left" "pretest" "7/17/2019" "10:58" "left" 0 1371.104 1 "07/11/2014" "English" NA NA "female" "Pre" "DO" "NonPred"
"EgtcuHoFCmCQrm1VqcGgZY6JI" 6 "4FillerPre2" "The_king_will_poke_the_jelly_with_the_fork" "Can_you_poke_the_jelly_with_the_fork?" "right" "left" "pretest_filler" "7/17/2019" "10:58" "left" 0 2143.104 1 "07/11/2014" "English" NA NA "female" "Pre" "DO" "NonPred"
"EgtcuHoFCmCQrm1VqcGgZY6JI" 7 "6Pre2" "Emily_elephant_will_bring_the_mouse_a_rabbit" "Can_you_bring_the_mouse_the_rabbit?" "right" "left" "pretest" "7/17/2019" "10:58" "left" 0 1253.104 1 "07/11/2014" "English" NA NA "female" "Pre" "DO" "NonPred"
"EgtcuHoFCmCQrm1VqcGgZY6JI" 8 "5Pre2" "The_queen_will_send_the_monkey_a_horse" "Can_you_send_the_monkey_the_horse?" "left" "right" "pretest" "7/17/2019" "10:58" "left" 1 2330.104 1 "07/11/2014" "English" NA NA "female" "Pre" "DO" "NonPred"
"EgtcuHoFCmCQrm1VqcGgZY6JI" 9 "1Pre2" "The_boy_will_bring_the_giraffe_a_cake" "Can_you_bring_the_giraffe_the_cake?" "left" "right" "pretest" "7/17/2019" "10:58" "left" 1 1630.104 1 "07/11/2014" "English" NA NA "female" "Pre" "DO" "NonPred"
"EgtcuHoFCmCQrm1VqcGgZY6JI" 10 "4Pre2" "The_king_will_throw_the_turtle_a_squirrel" "Can_you_throw_the_turtle_the_squirrel?" "left" "right" "pretest" "7/17/2019" "10:58" "left" 1 947.104 1 "07/11/2014" "English" NA NA "female" "Pre" "DO" "NonPred"
"eZ7ho2k5zltqLmcrTJh8e9MHq" 1 "2FillerPre2" "The_boy_will_put_the_train_in_the_box" "Can_you_put_the_train_in_the_box?" "right" "left" "pretest_filler" "7/1/2019" "11:41" "right" 1 6868.104 1 "21/6/15" "English" NA NA "male" "Post" "PO" "Pred"
"eZ7ho2k5zltqLmcrTJh8e9MHq" 2 "3FillerPre2" "The_girl_will_move_the_hat_to_the_table" "Can_you_move_the_hat_to_the_table?" "left" "right" "pretest_filler" "7/1/2019" "11:41" "left" 1 6633.104 1 "21/6/15" "English" NA NA "male" "Post" "PO" "Pred"
"eZ7ho2k5zltqLmcrTJh8e9MHq" 3 "2fillerpost2" "Boots_will_clean_the_chair_with_the_sponge" "Can_you_clean_the_chair_with_the_sponge?" "right" "left" "posttest_filler" "7/1/2019" "11:41" "right" 1 14708.104 1 "21/6/15" "English" NA NA "male" "Post" "PO" "Pred"
"eZ7ho2k5zltqLmcrTJh8e9MHq" 4 "3post2" "Boots_will_throw_the_giraffe_a_balloon" "Can_you_throw_the_giraffe_the_balloon?" "left" "right" "posttest" "7/1/2019" "11:41" "right" 0 1742.104 1 "21/6/15" "English" NA NA "male" "Post" "PO" "Pred"
"eZ7ho2k5zltqLmcrTJh8e9MHq" 5 "4Post2" "The_princess_will_send_the_lion_a_crocodile" "Can_you_send_the_lion_the_crocodile?" "right" "left" "posttest" "7/1/2019" "11:41" "right" 1 7030.104 1 "21/6/15" "English" NA NA "male" "Post" "PO" "Pred"
"eZ7ho2k5zltqLmcrTJh8e9MHq" 6 "6post2" "Dora_the_explorer_will_throw_the_puppy_a_hamster" "Can_you_throw_puppy_the_hamster?" "right" "left" "posttest" "7/1/2019" "11:41" "left" 0 7876.104 1 "21/6/15" "English" NA NA "male" "Post" "PO" "Pred"
"eZ7ho2k5zltqLmcrTJh8e9MHq" 7 "2post2" "The_girl_will_bring_the_horse_an_ice_cream" "Can_you_bring_the_horse_the_ice_cream?" "right" "left" "posttest" "7/1/2019" "11:41" "left" 0 2912.104 1 "21/6/15" "English" NA NA "male" "Post" "PO" "Pred"
"eZ7ho2k5zltqLmcrTJh8e9MHq" 8 "1fillerpost2" "The_princess_will_tickle_the_teddy_bear_with_the_feather" "Can_you_tickle_the_teddy_bear_with_the_feather?" "left" "right" "posttest_filler" "7/1/2019" "11:41" "left" 1 15854.104 1 "21/6/15" "English" NA NA "male" "Post" "PO" "Pred"
"eZ7ho2k5zltqLmcrTJh8e9MHq" 9 "1Post2" "The_boy_will_send_the_tiger_a_present" "Can_you_send_the_tiger_the_present?" "left" "right" "posttest" "7/1/2019" "11:41" "left" 1 2994.104 1 "21/6/15" "English" NA NA "male" "Post" "PO" "Pred"
"eZ7ho2k5zltqLmcrTJh8e9MHq" 10 "5post2" "The_prince_will_bring_the_turtle_a_cat" "Can_you_bring_the_turtle_the_cat?" "left" "right" "posttest" "7/1/2019" "11:41" "right" 0 2143.104 1 "21/6/15" "English" NA NA "male" "Post" "PO" "Pred"
"f42rNTils7J01GqEXJ97wb5Sp" 1 "2FillerPre2" "The_boy_will_put_the_train_in_the_box" "Can_you_put_the_train_in_the_box?" "right" "left" "pretest_filler" "7/17/2019" "09:34" "right" 1 2504.104 1 "18/02/15" "English" NA NA "male" "Post" "DO" "NonPred"
"f42rNTils7J01GqEXJ97wb5Sp" 2 "3FillerPre2" "The_girl_will_move_the_hat_to_the_table" "Can_you_move_the_hat_to_the_table?" "left" "right" "pretest_filler" "7/17/2019" "09:34" "left" 1 3170.104 1 "18/02/15" "English" NA NA "male" "Post" "DO" "NonPred"
"f42rNTils7J01GqEXJ97wb5Sp" 3 "6post2" "Dora_the_explorer_will_throw_the_puppy_a_hamster" "Can_you_throw_puppy_the_hamster?" "right" "left" "posttest" "7/17/2019" "09:34" "left" 0 4355.104 1 "18/02/15" "English" NA NA "male" "Post" "DO" "NonPred"
"f42rNTils7J01GqEXJ97wb5Sp" 4 "1fillerpost2" "The_princess_will_tickle_the_teddy_bear_with_the_feather" "Can_you_tickle_the_teddy_bear_with_the_feather?" "left" "right" "posttest_filler" "7/17/2019" "09:34" "left" 1 9070.104 1 "18/02/15" "English" NA NA "male" "Post" "DO" "NonPred"
"f42rNTils7J01GqEXJ97wb5Sp" 5 "2fillerpost2" "Boots_will_clean_the_chair_with_the_sponge" "Can_you_clean_the_chair_with_the_sponge?" "right" "left" "posttest_filler" "7/17/2019" "09:34" "right" 1 3020.104 1 "18/02/15" "English" NA NA "male" "Post" "DO" "NonPred"
"f42rNTils7J01GqEXJ97wb5Sp" 6 "3post2" "Boots_will_throw_the_giraffe_a_balloon" "Can_you_throw_the_giraffe_the_balloon?" "left" "right" "posttest" "7/17/2019" "09:34" "right" 0 2865.104 1 "18/02/15" "English" NA NA "male" "Post" "DO" "NonPred"
"f42rNTils7J01GqEXJ97wb5Sp" 7 "1Post2" "The_boy_will_send_the_tiger_a_present" "Can_you_send_the_tiger_the_present?" "right" "left" "posttest" "7/17/2019" "09:34" "left" 0 3059.104 1 "18/02/15" "English" NA NA "male" "Post" "DO" "NonPred"
"f42rNTils7J01GqEXJ97wb5Sp" 8 "4Post2" "The_princess_will_send_the_lion_a_crocodile" "Can_you_send_the_lion_the_crocodile?" "right" "left" "posttest" "7/17/2019" "09:34" "left" 0 3140.104 1 "18/02/15" "English" NA NA "male" "Post" "DO" "NonPred"
"f42rNTils7J01GqEXJ97wb5Sp" 9 "2post2" "The_girl_will_bring_the_horse_an_ice_cream" "Can_you_bring_the_horse_the_ice_cream?" "left" "right" "posttest" "7/17/2019" "09:34" "left" 1 2822.104 1 "18/02/15" "English" NA NA "male" "Post" "DO" "NonPred"
"f42rNTils7J01GqEXJ97wb5Sp" 10 "5post2" "The_prince_will_bring_the_turtle_a_cat" "Can_you_bring_the_turtle_the_cat?" "left" "right" "posttest" "7/17/2019" "09:34" "right" 0 1527.104 1 "18/02/15" "English" NA NA "male" "Post" "DO" "NonPred"
"FdODjTefLNBHciMwmAY0fzy0s" 1 "2FillerPre2" "The_boy_will_put_the_train_in_the_box" "Can_you_put_the_train_in_the_box?" "right" "left" "pretest_filler" "7/18/2019" "13:12" "right" 1 3339.104 1 "10/05/15" "English" NA NA "female" "Post" "DO" "Pred"
"FdODjTefLNBHciMwmAY0fzy0s" 2 "3FillerPre2" "The_girl_will_move_the_hat_to_the_table" "Can_you_move_the_hat_to_the_table?" "left" "right" "pretest_filler" "7/18/2019" "13:12" "left" 1 2145.104 1 "10/05/15" "English" NA NA "female" "Post" "DO" "Pred"
"FdODjTefLNBHciMwmAY0fzy0s" 3 "4Post2" "The_princess_will_send_the_lion_a_crocodile" "Can_you_send_the_lion_the_crocodile?" "right" "left" "posttest" "7/18/2019" "13:12" "left" 0 15642.104 1 "10/05/15" "English" NA NA "female" "Post" "DO" "Pred"
"FdODjTefLNBHciMwmAY0fzy0s" 4 "1Post2" "The_boy_will_send_the_tiger_a_present" "Can_you_send_the_tiger_the_present?" "left" "right" "posttest" "7/18/2019" "13:12" "left" 1 4297.104 1 "10/05/15" "English" NA NA "female" "Post" "DO" "Pred"
"FdODjTefLNBHciMwmAY0fzy0s" 5 "3post2" "Boots_will_throw_the_giraffe_a_balloon" "Can_you_throw_the_giraffe_the_balloon?" "left" "right" "posttest" "7/18/2019" "13:12" "right" 0 10790.104 1 "10/05/15" "English" NA NA "female" "Post" "DO" "Pred"
"FdODjTefLNBHciMwmAY0fzy0s" 6 "2fillerpost2" "Boots_will_clean_the_chair_with_the_sponge" "Can_you_clean_the_chair_with_the_sponge?" "left" "right" "posttest_filler" "7/18/2019" "13:12" "left" 1 11451.104 2 "10/05/15" "English" NA NA "female" "Post" "DO" "Pred"
"FdODjTefLNBHciMwmAY0fzy0s" 7 "5post2" "The_prince_will_bring_the_turtle_a_cat" "Can_you_bring_the_turtle_the_cat?" "right" "left" "posttest" "7/18/2019" "13:12" "left" 0 2799.104 1 "10/05/15" "English" NA NA "female" "Post" "DO" "Pred"
"FdODjTefLNBHciMwmAY0fzy0s" 8 "1fillerpost2" "The_princess_will_tickle_the_teddy_bear_with_the_feather" "Can_you_tickle_the_teddy_bear_with_the_feather?" "right" "left" "posttest_filler" "7/18/2019" "13:12" "right" 1 7300.104 1 "10/05/15" "English" NA NA "female" "Post" "DO" "Pred"
"FdODjTefLNBHciMwmAY0fzy0s" 9 "6post2" "Dora_the_explorer_will_throw_the_puppy_a_hamster" "Can_you_throw_puppy_the_hamster?" "right" "left" "posttest" "7/18/2019" "13:12" "left" 0 6757.104 1 "10/05/15" "English" NA NA "female" "Post" "DO" "Pred"
"FdODjTefLNBHciMwmAY0fzy0s" 10 "2post2" "The_girl_will_bring_the_horse_an_ice_cream" "Can_you_bring_the_horse_the_ice_cream?" "left" "right" "posttest" "7/18/2019" "13:12" "left" 1 8400.104 1 "10/05/15" "English" NA NA "female" "Post" "DO" "Pred"
"FjsXiQzIKRCaqW3ZWdhmDY6qC" 1 "2FillerPre2" "The_boy_will_put_the_train_in_the_box" "Can_you_put_the_train_in_the_box?" "right" "left" "pretest_filler" "7/18/2019" "09:36" "right" 1 2447.104 1 "05/04/15" "English" NA NA "female" "Pre" "DO" "NonPred"
"FjsXiQzIKRCaqW3ZWdhmDY6qC" 2 "3FillerPre2" "The_girl_will_move_the_hat_to_the_table" "Can_you_move_the_hat_to_the_table?" "left" "right" "pretest_filler" "7/18/2019" "09:36" "left" 1 3975.104 1 "05/04/15" "English" NA NA "female" "Pre" "DO" "NonPred"
"FjsXiQzIKRCaqW3ZWdhmDY6qC" 3 "2Pre2" "The_girl_will_throw_the_elephant_a_clock" "Can_you_throw_the_elephant_the_clock?" "right" "left" "pretest" "7/18/2019" "09:36" "left" 0 2778.104 1 "05/04/15" "English" NA NA "female" "Pre" "DO" "NonPred"
"FjsXiQzIKRCaqW3ZWdhmDY6qC" 4 "6Pre2" "Emily_elephant_will_bring_the_mouse_a_rabbit" "Can_you_bring_the_mouse_the_rabbit?" "left" "right" "pretest" "7/18/2019" "09:36" "right" 0 4851.104 1 "05/04/15" "English" NA NA "female" "Pre" "DO" "NonPred"
"FjsXiQzIKRCaqW3ZWdhmDY6qC" 5 "3Pre2" "Peppa_Pig_will_send_the_hamster_a_toy" "Can_you_send_the_hamster_the_toy?" "right" "left" "pretest" "7/18/2019" "09:36" "right" 1 4084.104 1 "05/04/15" "English" NA NA "female" "Pre" "DO" "NonPred"
"FjsXiQzIKRCaqW3ZWdhmDY6qC" 6 "4Pre2" "The_king_will_throw_the_turtle_a_squirrel" "Can_you_throw_the_turtle_the_squirrel?" "left" "right" "pretest" "7/18/2019" "09:36" "right" 0 2635.104 1 "05/04/15" "English" NA NA "female" "Pre" "DO" "NonPred"
"FjsXiQzIKRCaqW3ZWdhmDY6qC" 7 "1Pre2" "The_boy_will_bring_the_giraffe_a_cake" "Can_you_bring_the_giraffe_the_cake?" "left" "right" "pretest" "7/18/2019" "09:36" "right" 0 1365.104 1 "05/04/15" "English" NA NA "female" "Pre" "DO" "NonPred"
"FjsXiQzIKRCaqW3ZWdhmDY6qC" 8 "5Pre2" "The_queen_will_send_the_monkey_a_horse" "Can_you_send_the_monkey_the_horse?" "right" "left" "pretest" "7/18/2019" "09:36" "right" 1 2933.104 1 "05/04/15" "English" NA NA "female" "Pre" "DO" "NonPred"
"FjsXiQzIKRCaqW3ZWdhmDY6qC" 9 "1FillerPre2" "Peppa_pig_will_bounce_the_ball_with_the_bat" "Can_you_bounce_the_ball_with_the_bat?" "right" "left" "pretest_filler" "7/18/2019" "09:36" "left" 0 10976.104 1 "05/04/15" "English" NA NA "female" "Pre" "DO" "NonPred"
"FjsXiQzIKRCaqW3ZWdhmDY6qC" 10 "4FillerPre2" "The_king_will_poke_the_jelly_with_the_fork" "Can_you_poke_the_jelly_with_the_fork?" "left" "right" "pretest_filler" "7/18/2019" "09:36" "left" 1 2001.104 1 "05/04/15" "English" NA NA "female" "Pre" "DO" "NonPred"
"FwqPAwsJHhtqk1alRgW3QGzE2" 1 "2FillerPre2" "The_boy_will_put_the_train_in_the_box" "Can_you_put_the_train_in_the_box?" "right" "left" "pretest_filler" "7/24/2019" "11:05" "right" 1 2674.104 1 "02/04/2015" "English" NA NA "male" "Post" "PO" "NonPred"
"FwqPAwsJHhtqk1alRgW3QGzE2" 2 "3FillerPre2" "The_girl_will_move_the_hat_to_the_table" "Can_you_move_the_hat_to_the_table?" "left" "right" "pretest_filler" "7/24/2019" "11:05" "left" 1 1848.104 1 "02/04/2015" "English" NA NA "male" "Post" "PO" "NonPred"
"FwqPAwsJHhtqk1alRgW3QGzE2" 3 "1fillerpost2" "The_princess_will_tickle_the_teddy_bear_with_the_feather" "Can_you_tickle_the_teddy_bear_with_the_feather?" "left" "right" "posttest_filler" "7/24/2019" "11:05" "left" 1 3963.104 1 "02/04/2015" "English" NA NA "male" "Post" "PO" "NonPred"
"FwqPAwsJHhtqk1alRgW3QGzE2" 4 "6post2" "Dora_the_explorer_will_throw_the_puppy_a_hamster" "Can_you_throw_puppy_the_hamster?" "left" "right" "posttest" "7/24/2019" "11:05" "left" 1 1279.104 1 "02/04/2015" "English" NA NA "male" "Post" "PO" "NonPred"
"FwqPAwsJHhtqk1alRgW3QGzE2" 5 "1Post2" "The_boy_will_send_the_tiger_a_present" "Can_you_send_the_tiger_the_present?" "left" "right" "posttest" "7/24/2019" "11:05" "left" 1 2581.104 1 "02/04/2015" "English" NA NA "male" "Post" "PO" "NonPred"
"FwqPAwsJHhtqk1alRgW3QGzE2" 6 "5post2" "The_prince_will_bring_the_turtle_a_cat" "Can_you_bring_the_turtle_the_cat?" "right" "left" "posttest" "7/24/2019" "11:05" "left" 0 4346.104 1 "02/04/2015" "English" NA NA "male" "Post" "PO" "NonPred"
"FwqPAwsJHhtqk1alRgW3QGzE2" 7 "3post2" "Boots_will_throw_the_giraffe_a_balloon" "Can_you_throw_the_giraffe_the_balloon?" "right" "left" "posttest" "7/24/2019" "11:05" "left" 0 2016.104 1 "02/04/2015" "English" NA NA "male" "Post" "PO" "NonPred"
"FwqPAwsJHhtqk1alRgW3QGzE2" 8 "4Post2" "The_princess_will_send_the_lion_a_crocodile" "Can_you_send_the_lion_the_crocodile?" "right" "left" "posttest" "7/24/2019" "11:05" "right" 1 1657.104 1 "02/04/2015" "English" NA NA "male" "Post" "PO" "NonPred"
"FwqPAwsJHhtqk1alRgW3QGzE2" 9 "2post2" "The_girl_will_bring_the_horse_an_ice_cream" "Can_you_bring_the_horse_the_ice_cream?" "right" "left" "posttest" "7/24/2019" "11:05" "right" 1 2213.104 1 "02/04/2015" "English" NA NA "male" "Post" "PO" "NonPred"
"FwqPAwsJHhtqk1alRgW3QGzE2" 10 "2fillerpost2" "Boots_will_clean_the_chair_with_the_sponge" "Can_you_clean_the_chair_with_the_sponge?" "left" "right" "posttest_filler" "7/24/2019" "11:05" "left" 1 4115.104 1 "02/04/2015" "English" NA NA "male" "Post" "PO" "NonPred"
"g7Fmlktygd1UIcn5PL2AFBsjm" 1 "2FillerPre2" "The_boy_will_put_the_train_in_the_box" "Can_you_put_the_train_in_the_box?" "right" "left" "pretest_filler" "7/1/2019" "13:08" "right" 1 7835.104 2 "30/3/15" "English" NA NA "male" "Post" "DO" "NonPred"
"g7Fmlktygd1UIcn5PL2AFBsjm" 2 "3FillerPre2" "The_girl_will_move_the_hat_to_the_table" "Can_you_move_the_hat_to_the_table?" "left" "right" "pretest_filler" "7/1/2019" "13:08" "left" 1 3800.104 1 "30/3/15" "English" NA NA "male" "Post" "DO" "NonPred"
"g7Fmlktygd1UIcn5PL2AFBsjm" 3 "1fillerpost2" "The_princess_will_tickle_the_teddy_bear_with_the_feather" "Can_you_tickle_the_teddy_bear_with_the_feather?" "left" "right" "posttest_filler" "7/1/2019" "13:08" "right" 0 11161.104 1 "30/3/15" "English" NA NA "male" "Post" "DO" "NonPred"
"g7Fmlktygd1UIcn5PL2AFBsjm" 4 "2post2" "The_girl_will_bring_the_horse_an_ice_cream" "Can_you_bring_the_horse_the_ice_cream?" "left" "right" "posttest" "7/1/2019" "13:08" "right" 0 2999.104 1 "30/3/15" "English" NA NA "male" "Post" "DO" "NonPred"
"g7Fmlktygd1UIcn5PL2AFBsjm" 5 "5post2" "The_prince_will_bring_the_turtle_a_cat" "Can_you_bring_the_turtle_the_cat?" "right" "left" "posttest" "7/1/2019" "13:08" "right" 1 2532.104 1 "30/3/15" "English" NA NA "male" "Post" "DO" "NonPred"
"g7Fmlktygd1UIcn5PL2AFBsjm" 6 "6post2" "Dora_the_explorer_will_throw_the_puppy_a_hamster" "Can_you_throw_puppy_the_hamster?" "left" "right" "posttest" "7/1/2019" "13:08" "right" 0 3613.104 1 "30/3/15" "English" NA NA "male" "Post" "DO" "NonPred"
"g7Fmlktygd1UIcn5PL2AFBsjm" 7 "4Post2" "The_princess_will_send_the_lion_a_crocodile" "Can_you_send_the_lion_the_crocodile?" "right" "left" "posttest" "7/1/2019" "13:08" "left" 0 3517.104 1 "30/3/15" "English" NA NA "male" "Post" "DO" "NonPred"
"g7Fmlktygd1UIcn5PL2AFBsjm" 8 "1Post2" "The_boy_will_send_the_tiger_a_present" "Can_you_send_the_tiger_the_present?" "right" "left" "posttest" "7/1/2019" "13:08" "left" 0 2540.104 1 "30/3/15" "English" NA NA "male" "Post" "DO" "NonPred"
"g7Fmlktygd1UIcn5PL2AFBsjm" 9 "3post2" "Boots_will_throw_the_giraffe_a_balloon" "Can_you_throw_the_giraffe_the_balloon?" "right" "left" "posttest" "7/1/2019" "13:08" "left" 0 2651.104 1 "30/3/15" "English" NA NA "male" "Post" "DO" "NonPred"
"g7Fmlktygd1UIcn5PL2AFBsjm" 10 "2fillerpost2" "Boots_will_clean_the_chair_with_the_sponge" "Can_you_clean_the_chair_with_the_sponge?" "left" "right" "posttest_filler" "7/1/2019" "13:08" "right" 0 1433.104 1 "30/3/15" "English" NA NA "male" "Post" "DO" "NonPred"
"GQLgHmxXdeTrRxApGRccaywgx" 1 "2FillerPre2" "The_boy_will_put_the_train_in_the_box" "Can_you_put_the_train_in_the_box?" "right" "left" "pretest_filler" "6/25/2019" "09:21" "right" 1 2312.104 1 "7/9/14" "English" NA NA "male" "Pre" "PO" "NonPred"
"GQLgHmxXdeTrRxApGRccaywgx" 2 "3FillerPre2" "The_girl_will_move_the_hat_to_the_table" "Can_you_move_the_hat_to_the_table?" "left" "right" "pretest_filler" "6/25/2019" "09:21" "left" 1 2816.104 1 "7/9/14" "English" NA NA "male" "Pre" "PO" "NonPred"
"GQLgHmxXdeTrRxApGRccaywgx" 3 "6Pre2" "Emily_elephant_will_bring_the_mouse_a_rabbit" "Can_you_bring_the_mouse_the_rabbit?" "right" "left" "pretest" "6/25/2019" "09:21" "left" 0 2228.104 1 "7/9/14" "English" NA NA "male" "Pre" "PO" "NonPred"
"GQLgHmxXdeTrRxApGRccaywgx" 4 "1Pre2" "The_boy_will_bring_the_giraffe_a_cake" "Can_you_bring_the_giraffe_the_cake?" "right" "left" "pretest" "6/25/2019" "09:21" "left" 0 972.104 1 "7/9/14" "English" NA NA "male" "Pre" "PO" "NonPred"
"GQLgHmxXdeTrRxApGRccaywgx" 5 "3Pre2" "Peppa_Pig_will_send_the_hamster_a_toy" "Can_you_send_the_hamster_the_toy?" "left" "right" "pretest" "6/25/2019" "09:21" "right" 0 1865.104 1 "7/9/14" "English" NA NA "male" "Pre" "PO" "NonPred"
"GQLgHmxXdeTrRxApGRccaywgx" 6 "1FillerPre2" "Peppa_pig_will_bounce_the_ball_with_the_bat" "Can_you_bounce_the_ball_with_the_bat?" "right" "left" "pretest_filler" "6/25/2019" "09:21" "left" 0 1746.104 1 "7/9/14" "English" NA NA "male" "Pre" "PO" "NonPred"
"GQLgHmxXdeTrRxApGRccaywgx" 7 "4FillerPre2" "The_king_will_poke_the_jelly_with_the_fork" "Can_you_poke_the_jelly_with_the_fork?" "left" "right" "pretest_filler" "6/25/2019" "09:21" "left" 1 1099.104 1 "7/9/14" "English" NA NA "male" "Pre" "PO" "NonPred"
"GQLgHmxXdeTrRxApGRccaywgx" 8 "4Pre2" "The_king_will_throw_the_turtle_a_squirrel" "Can_you_throw_the_turtle_the_squirrel?" "left" "right" "pretest" "6/25/2019" "09:21" "right" 0 1843.104 1 "7/9/14" "English" NA NA "male" "Pre" "PO" "NonPred"
"GQLgHmxXdeTrRxApGRccaywgx" 9 "2Pre2" "The_girl_will_throw_the_elephant_a_clock" "Can_you_throw_the_elephant_the_clock?" "right" "left" "pretest" "6/25/2019" "09:21" "left" 0 2701.104 1 "7/9/14" "English" NA NA "male" "Pre" "PO" "NonPred"
"GQLgHmxXdeTrRxApGRccaywgx" 10 "5Pre2" "The_queen_will_send_the_monkey_a_horse" "Can_you_send_the_monkey_the_horse?" "left" "right" "pretest" "6/25/2019" "09:21" "right" 0 2991.104 1 "7/9/14" "English" NA NA "male" "Pre" "PO" "NonPred"
"H9yGpPYpoulJelMr19gxSWT9I" 1 "2FillerPre2" "The_boy_will_put_the_train_in_the_box" "Can_you_put_the_train_in_the_box?" "right" "left" "pretest_filler" "6/25/2019" "11:54" "right" 1 709.104 1 "20/2/15" "English" NA NA "female" "Post" "PO" "Pred"
"H9yGpPYpoulJelMr19gxSWT9I" 2 "3FillerPre2" "The_girl_will_move_the_hat_to_the_table" "Can_you_move_the_hat_to_the_table?" "left" "right" "pretest_filler" "6/25/2019" "11:54" "left" 1 1612.104 1 "20/2/15" "English" NA NA "female" "Post" "PO" "Pred"
"H9yGpPYpoulJelMr19gxSWT9I" 3 "6post2" "Dora_the_explorer_will_throw_the_puppy_a_hamster" "Can_you_throw_puppy_the_hamster?" "right" "left" "posttest" "6/25/2019" "11:54" "left" 0 8329.104 1 "20/2/15" "English" NA NA "female" "Post" "PO" "Pred"
"H9yGpPYpoulJelMr19gxSWT9I" 4 "2post2" "The_girl_will_bring_the_horse_an_ice_cream" "Can_you_bring_the_horse_the_ice_cream?" "right" "left" "posttest" "6/25/2019" "11:54" "left" 0 3561.104 1 "20/2/15" "English" NA NA "female" "Post" "PO" "Pred"
"H9yGpPYpoulJelMr19gxSWT9I" 5 "1Post2" "The_boy_will_send_the_tiger_a_present" "Can_you_send_the_tiger_the_present?" "right" "left" "posttest" "6/25/2019" "11:54" "left" 0 2394.104 1 "20/2/15" "English" NA NA "female" "Post" "PO" "Pred"
"H9yGpPYpoulJelMr19gxSWT9I" 6 "5post2" "The_prince_will_bring_the_turtle_a_cat" "Can_you_bring_the_turtle_the_cat?" "right" "left" "posttest" "6/25/2019" "11:54" "left" 0 2380.104 1 "20/2/15" "English" NA NA "female" "Post" "PO" "Pred"
"H9yGpPYpoulJelMr19gxSWT9I" 7 "1fillerpost2" "The_princess_will_tickle_the_teddy_bear_with_the_feather" "Can_you_tickle_the_teddy_bear_with_the_feather?" "left" "right" "posttest_filler" "6/25/2019" "11:54" "left" 1 3032.104 1 "20/2/15" "English" NA NA "female" "Post" "PO" "Pred"
"H9yGpPYpoulJelMr19gxSWT9I" 8 "2fillerpost2" "Boots_will_clean_the_chair_with_the_sponge" "Can_you_clean_the_chair_with_the_sponge?" "left" "right" "posttest_filler" "6/25/2019" "11:54" "left" 1 2170.104 1 "20/2/15" "English" NA NA "female" "Post" "PO" "Pred"
"H9yGpPYpoulJelMr19gxSWT9I" 9 "3post2" "Boots_will_throw_the_giraffe_a_balloon" "Can_you_throw_the_giraffe_the_balloon?" "left" "right" "posttest" "6/25/2019" "11:54" "right" 0 6636.104 1 "20/2/15" "English" NA NA "female" "Post" "PO" "Pred"
"H9yGpPYpoulJelMr19gxSWT9I" 10 "4Post2" "The_princess_will_send_the_lion_a_crocodile" "Can_you_send_the_lion_the_crocodile?" "left" "right" "posttest" "6/25/2019" "11:54" "right" 0 2646.104 1 "20/2/15" "English" NA NA "female" "Post" "PO" "Pred"
"HyCwP4l2LpCGQwMyERezuEdsp" 1 "2FillerPre2" "The_boy_will_put_the_train_in_the_box" "Can_you_put_the_train_in_the_box?" "right" "left" "pretest_filler" "6/25/2019" "11:12" "right" 1 2904.104 1 "28/6/15" "English" NA NA "male" "Post" "DO" "NonPred"
"HyCwP4l2LpCGQwMyERezuEdsp" 2 "3FillerPre2" "The_girl_will_move_the_hat_to_the_table" "Can_you_move_the_hat_to_the_table?" "left" "right" "pretest_filler" "6/25/2019" "11:12" "left" 1 1853.104 1 "28/6/15" "English" NA NA "male" "Post" "DO" "NonPred"
"HyCwP4l2LpCGQwMyERezuEdsp" 3 "2fillerpost2" "Boots_will_clean_the_chair_with_the_sponge" "Can_you_clean_the_chair_with_the_sponge?" "left" "right" "posttest_filler" "6/25/2019" "11:12" "left" 1 4867.104 1 "28/6/15" "English" NA NA "male" "Post" "DO" "NonPred"
"HyCwP4l2LpCGQwMyERezuEdsp" 4 "3post2" "Boots_will_throw_the_giraffe_a_balloon" "Can_you_throw_the_giraffe_the_balloon?" "right" "left" "posttest" "6/25/2019" "11:12" "left" 0 3219.104 1 "28/6/15" "English" NA NA "male" "Post" "DO" "NonPred"
"HyCwP4l2LpCGQwMyERezuEdsp" 5 "5post2" "The_prince_will_bring_the_turtle_a_cat" "Can_you_bring_the_turtle_the_cat?" "right" "left" "posttest" "6/25/2019" "11:12" "left" 0 1097.104 1 "28/6/15" "English" NA NA "male" "Post" "DO" "NonPred"
"HyCwP4l2LpCGQwMyERezuEdsp" 6 "1Post2" "The_boy_will_send_the_tiger_a_present" "Can_you_send_the_tiger_the_present?" "left" "right" "posttest" "6/25/2019" "11:12" "left" 1 1570.104 1 "28/6/15" "English" NA NA "male" "Post" "DO" "NonPred"
"HyCwP4l2LpCGQwMyERezuEdsp" 7 "4Post2" "The_princess_will_send_the_lion_a_crocodile" "Can_you_send_the_lion_the_crocodile?" "left" "right" "posttest" "6/25/2019" "11:12" "right" 0 3753.104 1 "28/6/15" "English" NA NA "male" "Post" "DO" "NonPred"
"HyCwP4l2LpCGQwMyERezuEdsp" 8 "1fillerpost2" "The_princess_will_tickle_the_teddy_bear_with_the_feather" "Can_you_tickle_the_teddy_bear_with_the_feather?" "left" "right" "posttest_filler" "6/25/2019" "11:12" "left" 1 6425.104 1 "28/6/15" "English" NA NA "male" "Post" "DO" "NonPred"
"HyCwP4l2LpCGQwMyERezuEdsp" 9 "6post2" "Dora_the_explorer_will_throw_the_puppy_a_hamster" "Can_you_throw_puppy_the_hamster?" "right" "left" "posttest" "6/25/2019" "11:12" "left" 0 3097.104 1 "28/6/15" "English" NA NA "male" "Post" "DO" "NonPred"
"HyCwP4l2LpCGQwMyERezuEdsp" 10 "2post2" "The_girl_will_bring_the_horse_an_ice_cream" "Can_you_bring_the_horse_the_ice_cream?" "right" "left" "posttest" "6/25/2019" "11:12" "right" 1 1947.104 1 "28/6/15" "English" NA NA "male" "Post" "DO" "NonPred"
"IJRTd7WULy3UcrqSAj58fK5Hk" 1 "2FillerPre2" "The_boy_will_put_the_train_in_the_box" "Can_you_put_the_train_in_the_box?" "right" "left" "pretest_filler" "7/18/2019" "14:23" "right" 1 6484.104 1 "02/10/14" "English" NA NA "female" "Post" "PO" "NonPred"
"IJRTd7WULy3UcrqSAj58fK5Hk" 2 "3FillerPre2" "The_girl_will_move_the_hat_to_the_table" "Can_you_move_the_hat_to_the_table?" "left" "right" "pretest_filler" "7/18/2019" "14:23" "left" 1 11547.104 1 "02/10/14" "English" NA NA "female" "Post" "PO" "NonPred"
"IJRTd7WULy3UcrqSAj58fK5Hk" 3 "4Post2" "The_princess_will_send_the_lion_a_crocodile" "Can_you_send_the_lion_the_crocodile?" "right" "left" "posttest" "7/18/2019" "14:23" "right" 1 11389.104 1 "02/10/14" "English" NA NA "female" "Post" "PO" "NonPred"
"IJRTd7WULy3UcrqSAj58fK5Hk" 4 "5post2" "The_prince_will_bring_the_turtle_a_cat" "Can_you_bring_the_turtle_the_cat?" "right" "left" "posttest" "7/18/2019" "14:23" "right" 1 3174.104 1 "02/10/14" "English" NA NA "female" "Post" "PO" "NonPred"
"IJRTd7WULy3UcrqSAj58fK5Hk" 5 "2post2" "The_girl_will_bring_the_horse_an_ice_cream" "Can_you_bring_the_horse_the_ice_cream?" "left" "right" "posttest" "7/18/2019" "14:23" "right" 0 3283.104 1 "02/10/14" "English" NA NA "female" "Post" "PO" "NonPred"
"IJRTd7WULy3UcrqSAj58fK5Hk" 6 "1Post2" "The_boy_will_send_the_tiger_a_present" "Can_you_send_the_tiger_the_present?" "right" "left" "posttest" "7/18/2019" "14:23" "right" 1 2936.104 1 "02/10/14" "English" NA NA "female" "Post" "PO" "NonPred"
"IJRTd7WULy3UcrqSAj58fK5Hk" 7 "6post2" "Dora_the_explorer_will_throw_the_puppy_a_hamster" "Can_you_throw_puppy_the_hamster?" "left" "right" "posttest" "7/18/2019" "14:23" "right" 0 2349.104 1 "02/10/14" "English" NA NA "female" "Post" "PO" "NonPred"
"IJRTd7WULy3UcrqSAj58fK5Hk" 8 "3post2" "Boots_will_throw_the_giraffe_a_balloon" "Can_you_throw_the_giraffe_the_balloon?" "left" "right" "posttest" "7/18/2019" "14:23" "left" 1 13703.104 1 "02/10/14" "English" NA NA "female" "Post" "PO" "NonPred"
"IJRTd7WULy3UcrqSAj58fK5Hk" 9 "2fillerpost2" "Boots_will_clean_the_chair_with_the_sponge" "Can_you_clean_the_chair_with_the_sponge?" "left" "right" "posttest_filler" "7/18/2019" "14:23" "left" 1 3039.104 1 "02/10/14" "English" NA NA "female" "Post" "PO" "NonPred"
"IJRTd7WULy3UcrqSAj58fK5Hk" 10 "1fillerpost2" "The_princess_will_tickle_the_teddy_bear_with_the_feather" "Can_you_tickle_the_teddy_bear_with_the_feather?" "right" "left" "posttest_filler" "7/18/2019" "14:23" "right" 1 2644.104 1 "02/10/14" "English" NA NA "female" "Post" "PO" "NonPred"
"iLumJFeKJT74QSXxlJLJx63CE" 1 "2FillerPre2" "The_boy_will_put_the_train_in_the_box" "Can_you_put_the_train_in_the_box?" "right" "left" "pretest_filler" "7/18/2019" "11:09" "right" 1 1803.104 1 "25/07/15" "English" NA NA "female" "Post" "PO" "Pred"
"iLumJFeKJT74QSXxlJLJx63CE" 2 "3FillerPre2" "The_girl_will_move_the_hat_to_the_table" "Can_you_move_the_hat_to_the_table?" "left" "right" "pretest_filler" "7/18/2019" "11:09" "left" 1 1466.104 1 "25/07/15" "English" NA NA "female" "Post" "PO" "Pred"
"iLumJFeKJT74QSXxlJLJx63CE" 3 "1Post2" "The_boy_will_send_the_tiger_a_present" "Can_you_send_the_tiger_the_present?" "right" "left" "posttest" "7/18/2019" "11:09" "left" 0 1803.104 1 "25/07/15" "English" NA NA "female" "Post" "PO" "Pred"
"iLumJFeKJT74QSXxlJLJx63CE" 4 "2fillerpost2" "Boots_will_clean_the_chair_with_the_sponge" "Can_you_clean_the_chair_with_the_sponge?" "left" "right" "posttest_filler" "7/18/2019" "11:09" "left" 1 3445.104 1 "25/07/15" "English" NA NA "female" "Post" "PO" "Pred"
"iLumJFeKJT74QSXxlJLJx63CE" 5 "5post2" "The_prince_will_bring_the_turtle_a_cat" "Can_you_bring_the_turtle_the_cat?" "left" "right" "posttest" "7/18/2019" "11:09" "right" 0 3425.104 1 "25/07/15" "English" NA NA "female" "Post" "PO" "Pred"
"iLumJFeKJT74QSXxlJLJx63CE" 6 "6post2" "Dora_the_explorer_will_throw_the_puppy_a_hamster" "Can_you_throw_puppy_the_hamster?" "left" "right" "posttest" "7/18/2019" "11:09" "right" 0 1872.104 1 "25/07/15" "English" NA NA "female" "Post" "PO" "Pred"
"iLumJFeKJT74QSXxlJLJx63CE" 7 "3post2" "Boots_will_throw_the_giraffe_a_balloon" "Can_you_throw_the_giraffe_the_balloon?" "right" "left" "posttest" "7/18/2019" "11:09" "left" 0 1396.104 1 "25/07/15" "English" NA NA "female" "Post" "PO" "Pred"
"iLumJFeKJT74QSXxlJLJx63CE" 8 "2post2" "The_girl_will_bring_the_horse_an_ice_cream" "Can_you_bring_the_horse_the_ice_cream?" "right" "left" "posttest" "7/18/2019" "11:09" "left" 0 1429.104 1 "25/07/15" "English" NA NA "female" "Post" "PO" "Pred"
"iLumJFeKJT74QSXxlJLJx63CE" 9 "1fillerpost2" "The_princess_will_tickle_the_teddy_bear_with_the_feather" "Can_you_tickle_the_teddy_bear_with_the_feather?" "left" "right" "posttest_filler" "7/18/2019" "11:09" "left" 1 2636.104 1 "25/07/15" "English" NA NA "female" "Post" "PO" "Pred"
"iLumJFeKJT74QSXxlJLJx63CE" 10 "4Post2" "The_princess_will_send_the_lion_a_crocodile" "Can_you_send_the_lion_the_crocodile?" "right" "left" "posttest" "7/18/2019" "11:09" "left" 0 3236.104 1 "25/07/15" "English" NA NA "female" "Post" "PO" "Pred"
"isclaECAm1tGFGQGrJ6XxNJpp" 1 "2FillerPre2" "The_boy_will_put_the_train_in_the_box" "Can_you_put_the_train_in_the_box?" "right" "left" "pretest_filler" "6/25/2019" "11:32" "right" 1 5452.104 1 "03/06/2015" "English" NA NA "female" "Pre" "PO" "Pred"
"isclaECAm1tGFGQGrJ6XxNJpp" 2 "3FillerPre2" "The_girl_will_move_the_hat_to_the_table" "Can_you_move_the_hat_to_the_table?" "left" "right" "pretest_filler" "6/25/2019" "11:32" "left" 1 4033.104 1 "03/06/2015" "English" NA NA "female" "Pre" "PO" "Pred"
"isclaECAm1tGFGQGrJ6XxNJpp" 3 "1Pre2" "The_boy_will_bring_the_giraffe_a_cake" "Can_you_bring_the_giraffe_the_cake?" "right" "left" "pretest" "6/25/2019" "11:32" "left" 0 2701.104 1 "03/06/2015" "English" NA NA "female" "Pre" "PO" "Pred"
"isclaECAm1tGFGQGrJ6XxNJpp" 4 "4FillerPre2" "The_king_will_poke_the_jelly_with_the_fork" "Can_you_poke_the_jelly_with_the_fork?" "left" "right" "pretest_filler" "6/25/2019" "11:32" "left" 1 7249.104 1 "03/06/2015" "English" NA NA "female" "Pre" "PO" "Pred"
"isclaECAm1tGFGQGrJ6XxNJpp" 5 "6Pre2" "Emily_elephant_will_bring_the_mouse_a_rabbit" "Can_you_bring_the_mouse_the_rabbit?" "left" "right" "pretest" "6/25/2019" "11:32" "right" 0 5074.104 1 "03/06/2015" "English" NA NA "female" "Pre" "PO" "Pred"
"isclaECAm1tGFGQGrJ6XxNJpp" 6 "3Pre2" "Peppa_Pig_will_send_the_hamster_a_toy" "Can_you_send_the_hamster_the_toy?" "right" "left" "pretest" "6/25/2019" "11:32" "right" 1 5216.104 1 "03/06/2015" "English" NA NA "female" "Pre" "PO" "Pred"
"isclaECAm1tGFGQGrJ6XxNJpp" 7 "4Pre2" "The_king_will_throw_the_turtle_a_squirrel" "Can_you_throw_the_turtle_the_squirrel?" "left" "right" "pretest" "6/25/2019" "11:32" "right" 0 2840.104 1 "03/06/2015" "English" NA NA "female" "Pre" "PO" "Pred"
"isclaECAm1tGFGQGrJ6XxNJpp" 8 "2Pre2" "The_girl_will_throw_the_elephant_a_clock" "Can_you_throw_the_elephant_the_clock?" "right" "left" "pretest" "6/25/2019" "11:32" "left" 0 6068.104 1 "03/06/2015" "English" NA NA "female" "Pre" "PO" "Pred"
"isclaECAm1tGFGQGrJ6XxNJpp" 9 "5Pre2" "The_queen_will_send_the_monkey_a_horse" "Can_you_send_the_monkey_the_horse?" "right" "left" "pretest" "6/25/2019" "11:32" "left" 0 3839.104 1 "03/06/2015" "English" NA NA "female" "Pre" "PO" "Pred"
"isclaECAm1tGFGQGrJ6XxNJpp" 10 "1FillerPre2" "Peppa_pig_will_bounce_the_ball_with_the_bat" "Can_you_bounce_the_ball_with_the_bat?" "left" "right" "pretest_filler" "6/25/2019" "11:32" "right" 0 7619.104 1 "03/06/2015" "English" NA NA "female" "Pre" "PO" "Pred"
"iseNCnCqCEyIiNnjFag4ulgmD" 1 "2FillerPre2" "The_boy_will_put_the_train_in_the_box" "Can_you_put_the_train_in_the_box?" "right" "left" "pretest_filler" "6/17/2019" "10:51" "right" 1 1605.104 1 "05/09/14" "English and Welsh" NA NA "male" "Pre" "DO" "NonPred"
"iseNCnCqCEyIiNnjFag4ulgmD" 2 "3FillerPre2" "The_girl_will_move_the_hat_to_the_table" "Can_you_move_the_hat_to_the_table?" "left" "right" "pretest_filler" "6/17/2019" "10:51" "left" 1 1927.104 1 "05/09/14" "English and Welsh" NA NA "male" "Pre" "DO" "NonPred"
"iseNCnCqCEyIiNnjFag4ulgmD" 3 "6Pre2" "Emily_elephant_will_bring_the_mouse_a_rabbit" "Can_you_bring_the_mouse_the_rabbit?" "right" "left" "pretest" "6/17/2019" "10:51" "right" 1 1231.104 1 "05/09/14" "English and Welsh" NA NA "male" "Pre" "DO" "NonPred"
"iseNCnCqCEyIiNnjFag4ulgmD" 4 "3Pre2" "Peppa_Pig_will_send_the_hamster_a_toy" "Can_you_send_the_hamster_the_toy?" "left" "right" "pretest" "6/17/2019" "10:51" "left" 1 1830.104 1 "05/09/14" "English and Welsh" NA NA "male" "Pre" "DO" "NonPred"
"iseNCnCqCEyIiNnjFag4ulgmD" 5 "5Pre2" "The_queen_will_send_the_monkey_a_horse" "Can_you_send_the_monkey_the_horse?" "right" "left" "pretest" "6/17/2019" "10:51" "right" 1 1294.104 1 "05/09/14" "English and Welsh" NA NA "male" "Pre" "DO" "NonPred"
"iseNCnCqCEyIiNnjFag4ulgmD" 6 "4Pre2" "The_king_will_throw_the_turtle_a_squirrel" "Can_you_throw_the_turtle_the_squirrel?" "left" "right" "pretest" "6/17/2019" "10:51" "left" 1 1365.104 1 "05/09/14" "English and Welsh" NA NA "male" "Pre" "DO" "NonPred"
"iseNCnCqCEyIiNnjFag4ulgmD" 7 "4FillerPre2" "The_king_will_poke_the_jelly_with_the_fork" "Can_you_poke_the_jelly_with_the_fork?" "left" "right" "pretest_filler" "6/17/2019" "10:51" "right" 0 978.104 1 "05/09/14" "English and Welsh" NA NA "male" "Pre" "DO" "NonPred"
"iseNCnCqCEyIiNnjFag4ulgmD" 8 "1FillerPre2" "Peppa_pig_will_bounce_the_ball_with_the_bat" "Can_you_bounce_the_ball_with_the_bat?" "left" "right" "pretest_filler" "6/17/2019" "10:51" "right" 0 1829.104 1 "05/09/14" "English and Welsh" NA NA "male" "Pre" "DO" "NonPred"
"iseNCnCqCEyIiNnjFag4ulgmD" 9 "1Pre2" "The_boy_will_bring_the_giraffe_a_cake" "Can_you_bring_the_giraffe_the_cake?" "right" "left" "pretest" "6/17/2019" "10:51" "right" 1 1251.104 1 "05/09/14" "English and Welsh" NA NA "male" "Pre" "DO" "NonPred"
"iseNCnCqCEyIiNnjFag4ulgmD" 10 "2Pre2" "The_girl_will_throw_the_elephant_a_clock" "Can_you_throw_the_elephant_the_clock?" "right" "left" "pretest" "6/17/2019" "10:51" "right" 1 2370.104 1 "05/09/14" "English and Welsh" NA NA "male" "Pre" "DO" "NonPred"
"IubJKuZAYluSUxIEddzxWBXf7" 1 "2FillerPre2" "The_boy_will_put_the_train_in_the_box" "Can_you_put_the_train_in_the_box?" "right" "left" "pretest_filler" "7/2/2019" "11:32" "right" 1 1236.104 1 "06/11/14" "English" NA NA "female" "Pre" "PO" "Pred"
"IubJKuZAYluSUxIEddzxWBXf7" 2 "3FillerPre2" "The_girl_will_move_the_hat_to_the_table" "Can_you_move_the_hat_to_the_table?" "left" "right" "pretest_filler" "7/2/2019" "11:32" "left" 1 1546.104 1 "06/11/14" "English" NA NA "female" "Pre" "PO" "Pred"
"IubJKuZAYluSUxIEddzxWBXf7" 3 "1Pre2" "The_boy_will_bring_the_giraffe_a_cake" "Can_you_bring_the_giraffe_the_cake?" "right" "left" "pretest" "7/2/2019" "11:32" "right" 1 3448.104 1 "06/11/14" "English" NA NA "female" "Pre" "PO" "Pred"
"IubJKuZAYluSUxIEddzxWBXf7" 4 "6Pre2" "Emily_elephant_will_bring_the_mouse_a_rabbit" "Can_you_bring_the_mouse_the_rabbit?" "left" "right" "pretest" "7/2/2019" "11:32" "right" 0 3050.104 1 "06/11/14" "English" NA NA "female" "Pre" "PO" "Pred"
"IubJKuZAYluSUxIEddzxWBXf7" 5 "4Pre2" "The_king_will_throw_the_turtle_a_squirrel" "Can_you_throw_the_turtle_the_squirrel?" "left" "right" "pretest" "7/2/2019" "11:32" "right" 0 1647.104 1 "06/11/14" "English" NA NA "female" "Pre" "PO" "Pred"
"IubJKuZAYluSUxIEddzxWBXf7" 6 "3Pre2" "Peppa_Pig_will_send_the_hamster_a_toy" "Can_you_send_the_hamster_the_toy?" "left" "right" "pretest" "7/2/2019" "11:32" "right" 0 3294.104 1 "06/11/14" "English" NA NA "female" "Pre" "PO" "Pred"
"IubJKuZAYluSUxIEddzxWBXf7" 7 "4FillerPre2" "The_king_will_poke_the_jelly_with_the_fork" "Can_you_poke_the_jelly_with_the_fork?" "left" "right" "pretest_filler" "7/2/2019" "11:32" "left" 1 2112.104 1 "06/11/14" "English" NA NA "female" "Pre" "PO" "Pred"
"IubJKuZAYluSUxIEddzxWBXf7" 8 "5Pre2" "The_queen_will_send_the_monkey_a_horse" "Can_you_send_the_monkey_the_horse?" "right" "left" "pretest" "7/2/2019" "11:32" "left" 0 1735.104 1 "06/11/14" "English" NA NA "female" "Pre" "PO" "Pred"
"IubJKuZAYluSUxIEddzxWBXf7" 9 "2Pre2" "The_girl_will_throw_the_elephant_a_clock" "Can_you_throw_the_elephant_the_clock?" "right" "left" "pretest" "7/2/2019" "11:32" "left" 0 4563.104 1 "06/11/14" "English" NA NA "female" "Pre" "PO" "Pred"
"IubJKuZAYluSUxIEddzxWBXf7" 10 "1FillerPre2" "Peppa_pig_will_bounce_the_ball_with_the_bat" "Can_you_bounce_the_ball_with_the_bat?" "right" "left" "pretest_filler" "7/2/2019" "11:32" "right" 1 1447.104 1 "06/11/14" "English" NA NA "female" "Pre" "PO" "Pred"
"jKVZJkEUAYCAGTBz9VnYGdeA8" 1 "2FillerPre2" "The_boy_will_put_the_train_in_the_box" "Can_you_put_the_train_in_the_box?" "right" "left" "pretest_filler" "4/17/2019" "13:37" "right" 1 3393.104 1 "31/12/2014" "English" NA NA "male" "Pre" "DO" "NonPred"
"jKVZJkEUAYCAGTBz9VnYGdeA8" 2 "3FillerPre2" "The_girl_will_move_the_hat_to_the_table" "Can_you_move_the_hat_to_the_table?" "left" "right" "pretest_filler" "4/17/2019" "13:37" "left" 1 2289.104 1 "31/12/2014" "English" NA NA "male" "Pre" "DO" "NonPred"
"jKVZJkEUAYCAGTBz9VnYGdeA8" 3 "1FillerPre2" "Peppa_pig_will_bounce_the_ball_with_the_bat" "Can_you_bounce_the_ball_with_the_bat?" "right" "left" "pretest_filler" "4/17/2019" "13:37" "right" 1 2672.104 1 "31/12/2014" "English" NA NA "male" "Pre" "DO" "NonPred"
"jKVZJkEUAYCAGTBz9VnYGdeA8" 4 "5Pre2" "The_queen_will_send_the_monkey_a_horse" "Can_you_send_the_monkey_the_horse?" "right" "left" "pretest" "4/17/2019" "13:37" "right" 1 1752.104 1 "31/12/2014" "English" NA NA "male" "Pre" "DO" "NonPred"
"jKVZJkEUAYCAGTBz9VnYGdeA8" 5 "3Pre2" "Peppa_Pig_will_send_the_hamster_a_toy" "Can_you_send_the_hamster_the_toy?" "left" "right" "pretest" "4/17/2019" "13:37" "left" 1 2760.104 1 "31/12/2014" "English" NA NA "male" "Pre" "DO" "NonPred"
"jKVZJkEUAYCAGTBz9VnYGdeA8" 6 "6Pre2" "Emily_elephant_will_bring_the_mouse_a_rabbit" "Can_you_bring_the_mouse_the_rabbit?" "right" "left" "pretest" "4/17/2019" "13:37" "right" 1 2467.104 1 "31/12/2014" "English" NA NA "male" "Pre" "DO" "NonPred"
"jKVZJkEUAYCAGTBz9VnYGdeA8" 7 "4Pre2" "The_king_will_throw_the_turtle_a_squirrel" "Can_you_throw_the_turtle_the_squirrel?" "left" "right" "pretest" "4/17/2019" "13:37" "right" 0 1963.104 1 "31/12/2014" "English" NA NA "male" "Pre" "DO" "NonPred"
"jKVZJkEUAYCAGTBz9VnYGdeA8" 8 "1Pre2" "The_boy_will_bring_the_giraffe_a_cake" "Can_you_bring_the_giraffe_the_cake?" "right" "left" "pretest" "4/17/2019" "13:37" "right" 1 1052.104 1 "31/12/2014" "English" NA NA "male" "Pre" "DO" "NonPred"
"jKVZJkEUAYCAGTBz9VnYGdeA8" 9 "4FillerPre2" "The_king_will_poke_the_jelly_with_the_fork" "Can_you_poke_the_jelly_with_the_fork?" "left" "right" "pretest_filler" "4/17/2019" "13:37" "left" 1 3961.104 1 "31/12/2014" "English" NA NA "male" "Pre" "DO" "NonPred"
