"subject_id" "trial_number" "trial_id" "target_sentence" "target_side" "other_side" "trial_type" "date_stamp" "time_stamp" "side_chosen" "accuracy" "rt" "play_counter" "order" "sentence_type" "animacy"
"17yCXAcVORBqpufI4fbQdvBdb" 1 "7doup" "Bob_the_builder_will_throw_the_penguin_the_dog" "left" "right" "training" "7/18/2019" "9:59" "left" 1 2839.442 1 "Post" "DO" "NonPred"
"17yCXAcVORBqpufI4fbQdvBdb" 2 "8doup" "Chase_will_give_the_kitten_the_deer" "right" "left" "training" "7/18/2019" "9:59" "right" 1 6313.442 1 "Post" "DO" "NonPred"
"17yCXAcVORBqpufI4fbQdvBdb" 3 "1doup" "The_boy_will_throw_the_bear_the_dinosaur" "left" "right" "training" "7/18/2019" "9:59" "left" 1 4662.442 1 "Post" "DO" "NonPred"
"17yCXAcVORBqpufI4fbQdvBdb" 4 "4doup" "George_will_send_the_donkey_the_fox" "left" "right" "training" "7/18/2019" "9:59" "left" 1 4535.442 1 "Post" "DO" "NonPred"
"17yCXAcVORBqpufI4fbQdvBdb" 5 "2doup" "Tigger_will_give_the_zebra_the_butterfly" "left" "right" "training" "7/18/2019" "9:59" "left" 1 1874.442 1 "Post" "DO" "NonPred"
"17yCXAcVORBqpufI4fbQdvBdb" 6 "11doup" "Marshall_will_pass_the_bee_the_goat" "right" "left" "training" "7/18/2019" "9:59" "right" 1 4437.442 1 "Post" "DO" "NonPred"
"17yCXAcVORBqpufI4fbQdvBdb" 7 "10doup" "Boots_will_send_the_caterpillar_to_the_pig" "left" "right" "training" "7/18/2019" "9:59" "left" 1 6102.442 1 "Post" "DO" "NonPred"
"17yCXAcVORBqpufI4fbQdvBdb" 8 "9doup" "Dora_the_explorer_will_bring_the_hippo_the_cow" "right" "left" "training" "7/18/2019" "9:59" "right" 1 5737.442 1 "Post" "DO" "NonPred"
"17yCXAcVORBqpufI4fbQdvBdb" 9 "5doup" "The_girl_will_pass_the_sheep_the_bird" "right" "left" "training" "7/18/2019" "9:59" "right" 1 6678.442 1 "Post" "DO" "NonPred"
"17yCXAcVORBqpufI4fbQdvBdb" 10 "12doup" "Winnie_the_pooh_will_show_the_duck_the_owl" "left" "right" "training" "7/18/2019" "9:59" "left" 1 5205.442 1 "Post" "DO" "NonPred"
"17yCXAcVORBqpufI4fbQdvBdb" 11 "6doup" "Piglet_will_show_the_fish_the_ant" "right" "left" "training" "7/18/2019" "9:59" "right" 1 3765.442 1 "Post" "DO" "NonPred"
"17yCXAcVORBqpufI4fbQdvBdb" 12 "3doup" "Rebecca_Rabbit_will_bring_the_chicken_the_frog" "right" "left" "training" "7/18/2019" "9:59" "right" 1 1313.442 1 "Post" "DO" "NonPred"
"1ebbSRddusMUfuZicVGxXhkbI" 1 "2poup" "Tigger_will_give_the_butterfly_to_the_zebra" "right" "left" "training" "7/1/2019" "10:43" "right" 1 17463.44 1 "Pre" "PO" "NonPred"
"1ebbSRddusMUfuZicVGxXhkbI" 2 "9poup" "Dora_the_explorer_will_bring_the_cow_to_the_hippo" "right" "left" "training" "7/1/2019" "10:43" "right" 1 4641.44 1 "Pre" "PO" "NonPred"
"1ebbSRddusMUfuZicVGxXhkbI" 3 "11poup" "Marshall_will_pass_the_goat_to_the_bee" "left" "right" "training" "7/1/2019" "10:43" "left" 1 1432.44 1 "Pre" "PO" "NonPred"
"1ebbSRddusMUfuZicVGxXhkbI" 4 "5poup" "The_girl_will_pass_the_bird_to_the_sheep" "right" "left" "training" "7/1/2019" "10:43" "right" 1 6020.44 1 "Pre" "PO" "NonPred"
"1ebbSRddusMUfuZicVGxXhkbI" 5 "4poup" "George_will_send_the_fox_to_the_donkey" "left" "right" "training" "7/1/2019" "10:43" "left" 1 1810.44 1 "Pre" "PO" "NonPred"
"1ebbSRddusMUfuZicVGxXhkbI" 6 "7poup" "Bob_the_builder_will_throw_the_dog_to_the_penguin" "left" "right" "training" "7/1/2019" "10:43" "left" 1 3919.44 1 "Pre" "PO" "NonPred"
"1ebbSRddusMUfuZicVGxXhkbI" 7 "1poup" "The_boy_will_throw_the_dinosaur_to_the_bear" "left" "right" "training" "7/1/2019" "10:43" "left" 1 993.440000000001 1 "Pre" "PO" "NonPred"
"1ebbSRddusMUfuZicVGxXhkbI" 8 "3poup" "Rebecca_Rabbit_will_bring_the_frog_to_the_chicken" "right" "left" "training" "7/1/2019" "10:43" "right" 1 1247.44 1 "Pre" "PO" "NonPred"
"1ebbSRddusMUfuZicVGxXhkbI" 9 "10poup" "Boots_will_send_the_pig_to_the_caterpillar" "left" "right" "training" "7/1/2019" "10:43" "left" 1 5982.44 1 "Pre" "PO" "NonPred"
"1ebbSRddusMUfuZicVGxXhkbI" 10 "6poup" "Piglet_will_show_the_ant_to_the_fish" "left" "right" "training" "7/1/2019" "10:43" "left" 1 9198.44 1 "Pre" "PO" "NonPred"
"1ebbSRddusMUfuZicVGxXhkbI" 11 "8poup" "Chase_will_give_the_deer_to_the_kitten" "right" "left" "training" "7/1/2019" "10:43" "right" 1 6798.44 1 "Pre" "PO" "NonPred"
"1ebbSRddusMUfuZicVGxXhkbI" 12 "12poup" "Winnie_the_pooh_will_show_the_owl_to_the_duck" "right" "left" "training" "7/1/2019" "10:43" "right" 1 3673.44 1 "Pre" "PO" "NonPred"
"1k3P0gDo6S69m8yf4ofLTpSPt" 1 "6doup" "Piglet_will_show_the_fish_the_ant" "right" "left" "training" "4/18/2019" "10:56" "right" 1 5351.352 1 "Post" "DO" "NonPred"
"1k3P0gDo6S69m8yf4ofLTpSPt" 2 "8doup" "Chase_will_give_the_kitten_the_deer" "left" "right" "training" "4/18/2019" "10:56" "left" 1 8388.352 1 "Post" "DO" "NonPred"
"1k3P0gDo6S69m8yf4ofLTpSPt" 3 "4doup" "George_will_send_the_donkey_the_fox" "left" "right" "training" "4/18/2019" "10:56" "left" 1 4960.352 1 "Post" "DO" "NonPred"
"1k3P0gDo6S69m8yf4ofLTpSPt" 4 "3doup" "Rebecca_Rabbit_will_bring_the_chicken_the_frog" "left" "right" "training" "4/18/2019" "10:56" "left" 1 6766.352 1 "Post" "DO" "NonPred"
"1k3P0gDo6S69m8yf4ofLTpSPt" 5 "11doup" "Marshall_will_pass_the_bee_the_goat" "left" "right" "training" "4/18/2019" "10:56" "left" 1 4762.352 1 "Post" "DO" "NonPred"
"1k3P0gDo6S69m8yf4ofLTpSPt" 6 "12doup" "Winnie_the_pooh_will_show_the_duck_the_owl" "right" "left" "training" "4/18/2019" "10:56" "right" 1 5393.352 1 "Post" "DO" "NonPred"
"1k3P0gDo6S69m8yf4ofLTpSPt" 7 "7doup" "Bob_the_builder_will_throw_the_penguin_the_dog" "right" "left" "training" "4/18/2019" "10:56" "right" 1 6602.352 1 "Post" "DO" "NonPred"
"1k3P0gDo6S69m8yf4ofLTpSPt" 8 "9doup" "Dora_the_explorer_will_bring_the_hippo_the_cow" "right" "left" "training" "4/18/2019" "10:56" "right" 1 6512.352 1 "Post" "DO" "NonPred"
"1k3P0gDo6S69m8yf4ofLTpSPt" 9 "2doup" "Tigger_will_give_the_zebra_the_butterfly" "left" "right" "training" "4/18/2019" "10:56" "left" 1 2165.352 1 "Post" "DO" "NonPred"
"1k3P0gDo6S69m8yf4ofLTpSPt" 10 "1doup" "The_boy_will_throw_the_bear_the_dinosaur" "left" "right" "training" "4/18/2019" "10:56" "left" 1 7788.352 1 "Post" "DO" "NonPred"
"1k3P0gDo6S69m8yf4ofLTpSPt" 11 "10doup" "Boots_will_send_the_caterpillar_to_the_pig" "right" "left" "training" "4/18/2019" "10:56" "right" 1 3903.352 1 "Post" "DO" "NonPred"
"1k3P0gDo6S69m8yf4ofLTpSPt" 12 "5doup" "The_girl_will_pass_the_sheep_the_bird" "right" "left" "training" "4/18/2019" "10:56" "right" 1 7870.352 1 "Post" "DO" "NonPred"
"1lnxkkBkcSSP61ZyjAlwc7ap7" 1 "3doup" "Rebecca_Rabbit_will_bring_the_chicken_the_frog" "left" "right" "training" "7/18/2019" "10:50" "left" 1 16266.1 1 "Post" "DO" "NonPred"
"1lnxkkBkcSSP61ZyjAlwc7ap7" 2 "1doup" "The_boy_will_throw_the_bear_the_dinosaur" "right" "left" "training" "7/18/2019" "10:50" "right" 1 5648.1 1 "Post" "DO" "NonPred"
"1lnxkkBkcSSP61ZyjAlwc7ap7" 3 "11doup" "Marshall_will_pass_the_bee_the_goat" "left" "right" "training" "7/18/2019" "10:50" "left" 1 9763.1 1 "Post" "DO" "NonPred"
"1lnxkkBkcSSP61ZyjAlwc7ap7" 4 "4doup" "George_will_send_the_donkey_the_fox" "left" "right" "training" "7/18/2019" "10:50" "left" 1 9072.1 1 "Post" "DO" "NonPred"
"1lnxkkBkcSSP61ZyjAlwc7ap7" 5 "7doup" "Bob_the_builder_will_throw_the_penguin_the_dog" "right" "left" "training" "7/18/2019" "10:50" "right" 1 7249.1 1 "Post" "DO" "NonPred"
"1lnxkkBkcSSP61ZyjAlwc7ap7" 6 "6doup" "Piglet_will_show_the_fish_the_ant" "right" "left" "training" "7/18/2019" "10:50" "right" 1 4702.1 1 "Post" "DO" "NonPred"
"1lnxkkBkcSSP61ZyjAlwc7ap7" 7 "12doup" "Winnie_the_pooh_will_show_the_duck_the_owl" "right" "left" "training" "7/18/2019" "10:50" "right" 1 3524.1 1 "Post" "DO" "NonPred"
"1lnxkkBkcSSP61ZyjAlwc7ap7" 8 "10doup" "Boots_will_send_the_caterpillar_to_the_pig" "right" "left" "training" "7/18/2019" "10:50" "right" 1 1729.1 1 "Post" "DO" "NonPred"
"1lnxkkBkcSSP61ZyjAlwc7ap7" 9 "8doup" "Chase_will_give_the_kitten_the_deer" "right" "left" "training" "7/18/2019" "10:50" "right" 1 3802.1 1 "Post" "DO" "NonPred"
"1lnxkkBkcSSP61ZyjAlwc7ap7" 10 "5doup" "The_girl_will_pass_the_sheep_the_bird" "left" "right" "training" "7/18/2019" "10:50" "left" 1 3296.1 1 "Post" "DO" "NonPred"
"1lnxkkBkcSSP61ZyjAlwc7ap7" 11 "9doup" "Dora_the_explorer_will_bring_the_hippo_the_cow" "left" "right" "training" "7/18/2019" "10:50" "left" 1 3876.1 1 "Post" "DO" "NonPred"
"1lnxkkBkcSSP61ZyjAlwc7ap7" 12 "2doup" "Tigger_will_give_the_zebra_the_butterfly" "left" "right" "training" "7/18/2019" "10:50" "left" 1 5588.1 1 "Post" "DO" "NonPred"
"2GHibkOORxf1BEG7fHceuUNve" 1 "1dop" "The_boy_will_throw_the_bear_the_cheese" "left" "right" "training" "06/05/2019" "14:19" "left" 1 5583.661 1 "Post" "DO" "Pred"
"2GHibkOORxf1BEG7fHceuUNve" 2 "4dop" "George_will_send_the_donkey_the_brush" "right" "left" "training" "06/05/2019" "14:19" "right" 1 2671.661 1 "Post" "DO" "Pred"
"2GHibkOORxf1BEG7fHceuUNve" 3 "3dop" "Rebecca_Rabbit_will_bring_the_chicken_the_pencil" "left" "right" "training" "06/05/2019" "14:19" "left" 1 964.661 1 "Post" "DO" "Pred"
"2GHibkOORxf1BEG7fHceuUNve" 4 "12dop" "Winnie_the_pooh_will_show_the_duck_the_frisbee" "right" "left" "training" "06/05/2019" "14:19" "right" 1 2150.661 1 "Post" "DO" "Pred"
"2GHibkOORxf1BEG7fHceuUNve" 5 "11dop" "Marshall_will_pass_the_bee_the_gloves" "left" "right" "training" "06/05/2019" "14:19" "left" 1 1438.661 1 "Post" "DO" "Pred"
"2GHibkOORxf1BEG7fHceuUNve" 6 "8dop" "Chase_will_give_the_kitten_the_bisuit" "right" "left" "training" "06/05/2019" "14:19" "right" 1 2992.661 1 "Post" "DO" "Pred"
"2GHibkOORxf1BEG7fHceuUNve" 7 "10dop" "Boots_will_send_the_caterpillar_the_flower" "left" "right" "training" "06/05/2019" "14:19" "left" 1 1359.661 1 "Post" "DO" "Pred"
"2GHibkOORxf1BEG7fHceuUNve" 8 "5dop" "The_girl_will_pass_the_sheep_the_dress" "left" "right" "training" "06/05/2019" "14:19" "left" 1 2566.661 1 "Post" "DO" "Pred"
"2GHibkOORxf1BEG7fHceuUNve" 9 "2dop" "Tigger_will_give_the_zebra_the_bottle" "left" "right" "training" "06/05/2019" "14:19" "left" 1 838.661 1 "Post" "DO" "Pred"
"2GHibkOORxf1BEG7fHceuUNve" 10 "6dop" "Piglet_will_show_the_fish_the_plate" "right" "left" "training" "06/05/2019" "14:19" "right" 1 11575.661 1 "Post" "DO" "Pred"
"2GHibkOORxf1BEG7fHceuUNve" 11 "7dop" "Bob_the_builder_will_throw_the_penguin_the_shoe" "right" "left" "training" "06/05/2019" "14:19" "right" 1 1334.661 2 "Post" "DO" "Pred"
"2GHibkOORxf1BEG7fHceuUNve" 12 "9dop" "Dora_the_explorer_will_bring_the_hippo_the_spoon" "right" "left" "training" "06/05/2019" "14:19" "right" 1 1936.661 1 "Post" "DO" "Pred"
"2hYJmUF5jJEGGI7LxAbvsImqO" 1 "1poup" "The_boy_will_throw_the_dinosaur_to_the_bear" "right" "left" "training" "6/28/2019" "10:10" "right" 1 8621 1 "Post" "PO" "NonPred"
"2hYJmUF5jJEGGI7LxAbvsImqO" 2 "8poup" "Chase_will_give_the_deer_to_the_kitten" "right" "left" "training" "6/28/2019" "10:10" "right" 1 4979 1 "Post" "PO" "NonPred"
"2hYJmUF5jJEGGI7LxAbvsImqO" 3 "12poup" "Winnie_the_pooh_will_show_the_owl_to_the_duck" "left" "right" "training" "6/28/2019" "10:10" "left" 1 5126 1 "Post" "PO" "NonPred"
"2hYJmUF5jJEGGI7LxAbvsImqO" 4 "7poup" "Bob_the_builder_will_throw_the_dog_to_the_penguin" "right" "left" "training" "6/28/2019" "10:10" "right" 1 5084 1 "Post" "PO" "NonPred"
"2hYJmUF5jJEGGI7LxAbvsImqO" 5 "3poup" "Rebecca_Rabbit_will_bring_the_frog_to_the_chicken" "left" "right" "training" "6/28/2019" "10:10" "left" 1 4006 1 "Post" "PO" "NonPred"
"2hYJmUF5jJEGGI7LxAbvsImqO" 6 "4poup" "George_will_send_the_fox_to_the_donkey" "right" "left" "training" "6/28/2019" "10:10" "right" 1 6782 1 "Post" "PO" "NonPred"
"2hYJmUF5jJEGGI7LxAbvsImqO" 7 "11poup" "Marshall_will_pass_the_goat_to_the_bee" "left" "right" "training" "6/28/2019" "10:10" "left" 1 1952 1 "Post" "PO" "NonPred"
"2hYJmUF5jJEGGI7LxAbvsImqO" 8 "5poup" "The_girl_will_pass_the_bird_to_the_sheep" "left" "right" "training" "6/28/2019" "10:10" "left" 1 3075 1 "Post" "PO" "NonPred"
"2hYJmUF5jJEGGI7LxAbvsImqO" 9 "2poup" "Tigger_will_give_the_butterfly_to_the_zebra" "left" "right" "training" "6/28/2019" "10:10" "left" 1 4082 1 "Post" "PO" "NonPred"
"2hYJmUF5jJEGGI7LxAbvsImqO" 10 "6poup" "Piglet_will_show_the_ant_to_the_fish" "right" "left" "training" "6/28/2019" "10:10" "right" 1 5352 1 "Post" "PO" "NonPred"
"2hYJmUF5jJEGGI7LxAbvsImqO" 11 "9poup" "Dora_the_explorer_will_bring_the_cow_to_the_hippo" "left" "right" "training" "6/28/2019" "10:10" "left" 1 4897 1 "Post" "PO" "NonPred"
"2hYJmUF5jJEGGI7LxAbvsImqO" 12 "10poup" "Boots_will_send_the_pig_to_the_caterpillar" "right" "left" "training" "6/28/2019" "10:10" "right" 1 4215 1 "Post" "PO" "NonPred"
"498wbE6Ds1TB31uO9iPg2FSGC" 1 "5pop" "The_girl_will_pass_the_dress_to_the_sheep" "left" "right" "training" "6/17/2019" "11:19" "left" 1 6542.342 1 "Pre" "PO" "Pred"
"498wbE6Ds1TB31uO9iPg2FSGC" 2 "8pop" "Chase_will_give_the_biscuit_to_the_kitten" "left" "right" "training" "6/17/2019" "11:19" "left" 1 3507.342 1 "Pre" "PO" "Pred"
"498wbE6Ds1TB31uO9iPg2FSGC" 3 "2pop" "Tigger_will_give_the_bottle_to_the_zebra" "right" "left" "training" "6/17/2019" "11:19" "right" 1 3105.342 1 "Pre" "PO" "Pred"
"498wbE6Ds1TB31uO9iPg2FSGC" 4 "7pop" "Bob_the_builder_will_throw_the_shoe_to_the_penguin" "left" "right" "training" "6/17/2019" "11:19" "left" 1 5036.342 1 "Pre" "PO" "Pred"
"498wbE6Ds1TB31uO9iPg2FSGC" 5 "9pop" "Dora_the_explorer_will_bring_the_spoon_to_the_hippo" "right" "left" "training" "6/17/2019" "11:19" "right" 1 3962.342 1 "Pre" "PO" "Pred"
"498wbE6Ds1TB31uO9iPg2FSGC" 6 "6pop" "Piglet_will_show_the_plate_to_the_fish" "right" "left" "training" "6/17/2019" "11:19" "right" 1 3001.342 1 "Pre" "PO" "Pred"
"498wbE6Ds1TB31uO9iPg2FSGC" 7 "11pop" "Marshall_will_pass_the_gloves_to_the_bee" "left" "right" "training" "6/17/2019" "11:19" "left" 1 727.342 1 "Pre" "PO" "Pred"
"498wbE6Ds1TB31uO9iPg2FSGC" 8 "4pop" "George_will_send_the_brush_to_the_donkey" "left" "right" "training" "6/17/2019" "11:19" "left" 1 6206.342 1 "Pre" "PO" "Pred"
"498wbE6Ds1TB31uO9iPg2FSGC" 9 "12pop" "Winnie_the_pooh_will_show_the_frisbee_to_the_duck" "right" "left" "training" "6/17/2019" "11:19" "right" 1 3172.342 1 "Pre" "PO" "Pred"
"498wbE6Ds1TB31uO9iPg2FSGC" 10 "1pop" "The_boy_will_throw_the_cheese_to_the_bear" "left" "right" "training" "6/17/2019" "11:19" "left" 1 4631.342 1 "Pre" "PO" "Pred"
"498wbE6Ds1TB31uO9iPg2FSGC" 11 "10pop" "Boots_will_send_the_flower_to_the_caterpillar" "right" "left" "training" "6/17/2019" "11:19" "right" 1 3687.342 1 "Pre" "PO" "Pred"
"498wbE6Ds1TB31uO9iPg2FSGC" 12 "3pop" "Rebecca_Rabbit_will_bring_the_pencil_to_the_chicken" "right" "left" "training" "6/17/2019" "11:19" "right" 1 2218.342 1 "Pre" "PO" "Pred"
"61x4FnXrK9rg95OYskMdijIyJ" 1 "5pop" "The_girl_will_pass_the_dress_to_the_sheep" "right" "left" "training" "7/17/2019" "14:31" "right" 1 10803.342 1 "Post" "PO" "Pred"
"61x4FnXrK9rg95OYskMdijIyJ" 2 "3pop" "Rebecca_Rabbit_will_bring_the_pencil_to_the_chicken" "right" "left" "training" "7/17/2019" "14:31" "right" 1 1612.342 1 "Post" "PO" "Pred"
"61x4FnXrK9rg95OYskMdijIyJ" 3 "9pop" "Dora_the_explorer_will_bring_the_spoon_to_the_hippo" "left" "right" "training" "7/17/2019" "14:31" "left" 1 4024.342 1 "Post" "PO" "Pred"
"61x4FnXrK9rg95OYskMdijIyJ" 4 "8pop" "Chase_will_give_the_biscuit_to_the_kitten" "right" "left" "training" "7/17/2019" "14:31" "right" 1 1900.342 1 "Post" "PO" "Pred"
"61x4FnXrK9rg95OYskMdijIyJ" 5 "1pop" "The_boy_will_throw_the_cheese_to_the_bear" "left" "right" "training" "7/17/2019" "14:31" "left" 1 3507.342 1 "Post" "PO" "Pred"
"61x4FnXrK9rg95OYskMdijIyJ" 6 "2pop" "Tigger_will_give_the_bottle_to_the_zebra" "left" "right" "training" "7/17/2019" "14:31" "left" 1 1323.342 1 "Post" "PO" "Pred"
"61x4FnXrK9rg95OYskMdijIyJ" 7 "6pop" "Piglet_will_show_the_plate_to_the_fish" "right" "left" "training" "7/17/2019" "14:31" "right" 1 4371.342 1 "Post" "PO" "Pred"
"61x4FnXrK9rg95OYskMdijIyJ" 8 "10pop" "Boots_will_send_the_flower_to_the_caterpillar" "right" "left" "training" "7/17/2019" "14:31" "right" 1 1217.342 1 "Post" "PO" "Pred"
"61x4FnXrK9rg95OYskMdijIyJ" 9 "4pop" "George_will_send_the_brush_to_the_donkey" "right" "left" "training" "7/17/2019" "14:31" "right" 1 5916.342 1 "Post" "PO" "Pred"
"61x4FnXrK9rg95OYskMdijIyJ" 10 "11pop" "Marshall_will_pass_the_gloves_to_the_bee" "left" "right" "training" "7/17/2019" "14:31" "left" 1 1428.342 1 "Post" "PO" "Pred"
"61x4FnXrK9rg95OYskMdijIyJ" 11 "7pop" "Bob_the_builder_will_throw_the_shoe_to_the_penguin" "left" "right" "training" "7/17/2019" "14:31" "left" 1 983.342 1 "Post" "PO" "Pred"
"61x4FnXrK9rg95OYskMdijIyJ" 12 "12pop" "Winnie_the_pooh_will_show_the_frisbee_to_the_duck" "left" "right" "training" "7/17/2019" "14:31" "left" 1 1074.342 1 "Post" "PO" "Pred"
"7MSbwhpozV3MbVAdES2Ot3Yed" 1 "9poup" "Dora_the_explorer_will_bring_the_cow_to_the_hippo" "right" "left" "training" "7/17/2019" "14:12" "right" 1 7203.756 1 "Pre" "PO" "NonPred"
"7MSbwhpozV3MbVAdES2Ot3Yed" 2 "4poup" "George_will_send_the_fox_to_the_donkey" "right" "left" "training" "7/17/2019" "14:12" "right" 1 3280.756 1 "Pre" "PO" "NonPred"
"7MSbwhpozV3MbVAdES2Ot3Yed" 3 "1poup" "The_boy_will_throw_the_dinosaur_to_the_bear" "right" "left" "training" "7/17/2019" "14:12" "right" 1 2660.756 1 "Pre" "PO" "NonPred"
"7MSbwhpozV3MbVAdES2Ot3Yed" 4 "7poup" "Bob_the_builder_will_throw_the_dog_to_the_penguin" "left" "right" "training" "7/17/2019" "14:12" "left" 1 3061.756 1 "Pre" "PO" "NonPred"
"7MSbwhpozV3MbVAdES2Ot3Yed" 5 "10poup" "Boots_will_send_the_pig_to_the_caterpillar" "left" "right" "training" "7/17/2019" "14:12" "left" 1 2422.756 1 "Pre" "PO" "NonPred"
"7MSbwhpozV3MbVAdES2Ot3Yed" 6 "12poup" "Winnie_the_pooh_will_show_the_owl_to_the_duck" "right" "left" "training" "7/17/2019" "14:12" "right" 1 2621.756 1 "Pre" "PO" "NonPred"
"7MSbwhpozV3MbVAdES2Ot3Yed" 7 "5poup" "The_girl_will_pass_the_bird_to_the_sheep" "left" "right" "training" "7/17/2019" "14:12" "left" 1 2315.756 1 "Pre" "PO" "NonPred"
"7MSbwhpozV3MbVAdES2Ot3Yed" 8 "3poup" "Rebecca_Rabbit_will_bring_the_frog_to_the_chicken" "left" "right" "training" "7/17/2019" "14:12" "left" 1 413.756000000001 1 "Pre" "PO" "NonPred"
"7MSbwhpozV3MbVAdES2Ot3Yed" 9 "6poup" "Piglet_will_show_the_ant_to_the_fish" "left" "right" "training" "7/17/2019" "14:12" "left" 1 960.756000000001 1 "Pre" "PO" "NonPred"
"7MSbwhpozV3MbVAdES2Ot3Yed" 10 "8poup" "Chase_will_give_the_deer_to_the_kitten" "right" "left" "training" "7/17/2019" "14:12" "right" 1 1391.756 1 "Pre" "PO" "NonPred"
"7MSbwhpozV3MbVAdES2Ot3Yed" 11 "2poup" "Tigger_will_give_the_butterfly_to_the_zebra" "left" "right" "training" "7/17/2019" "14:12" "left" 1 1013.756 1 "Pre" "PO" "NonPred"
"7MSbwhpozV3MbVAdES2Ot3Yed" 12 "11poup" "Marshall_will_pass_the_goat_to_the_bee" "right" "left" "training" "7/17/2019" "14:12" "right" 1 860.756000000001 1 "Pre" "PO" "NonPred"
"7VD7Nx9teJprkUcPfXD2yLYyi" 1 "10poup" "Boots_will_send_the_pig_to_the_caterpillar" "right" "left" "training" "7/18/2019" "13:41" "right" 1 4026.889 1 "Post" "PO" "NonPred"
"7VD7Nx9teJprkUcPfXD2yLYyi" 2 "6poup" "Piglet_will_show_the_ant_to_the_fish" "right" "left" "training" "7/18/2019" "13:41" "right" 1 8399.889 1 "Post" "PO" "NonPred"
"7VD7Nx9teJprkUcPfXD2yLYyi" 3 "12poup" "Winnie_the_pooh_will_show_the_owl_to_the_duck" "left" "right" "training" "7/18/2019" "13:41" "left" 1 5424.889 1 "Post" "PO" "NonPred"
"7VD7Nx9teJprkUcPfXD2yLYyi" 4 "9poup" "Dora_the_explorer_will_bring_the_cow_to_the_hippo" "left" "right" "training" "7/18/2019" "13:41" "left" 1 3487.889 1 "Post" "PO" "NonPred"
"7VD7Nx9teJprkUcPfXD2yLYyi" 5 "7poup" "Bob_the_builder_will_throw_the_dog_to_the_penguin" "right" "left" "training" "7/18/2019" "13:41" "right" 1 4437.889 1 "Post" "PO" "NonPred"
"7VD7Nx9teJprkUcPfXD2yLYyi" 6 "4poup" "George_will_send_the_fox_to_the_donkey" "left" "right" "training" "7/18/2019" "13:41" "left" 1 2777.889 1 "Post" "PO" "NonPred"
"7VD7Nx9teJprkUcPfXD2yLYyi" 7 "2poup" "Tigger_will_give_the_butterfly_to_the_zebra" "left" "right" "training" "7/18/2019" "13:41" "left" 1 1868.889 1 "Post" "PO" "NonPred"
"7VD7Nx9teJprkUcPfXD2yLYyi" 8 "8poup" "Chase_will_give_the_deer_to_the_kitten" "left" "right" "training" "7/18/2019" "13:41" "left" 1 8050.889 1 "Post" "PO" "NonPred"
"7VD7Nx9teJprkUcPfXD2yLYyi" 9 "11poup" "Marshall_will_pass_the_goat_to_the_bee" "right" "left" "training" "7/18/2019" "13:41" "right" 1 1774.889 1 "Post" "PO" "NonPred"
"7VD7Nx9teJprkUcPfXD2yLYyi" 10 "3poup" "Rebecca_Rabbit_will_bring_the_frog_to_the_chicken" "right" "left" "training" "7/18/2019" "13:41" "right" 1 4551.889 1 "Post" "PO" "NonPred"
"7VD7Nx9teJprkUcPfXD2yLYyi" 11 "1poup" "The_boy_will_throw_the_dinosaur_to_the_bear" "left" "right" "training" "7/18/2019" "13:41" "left" 1 2935.889 1 "Post" "PO" "NonPred"
"7VD7Nx9teJprkUcPfXD2yLYyi" 12 "5poup" "The_girl_will_pass_the_bird_to_the_sheep" "right" "left" "training" "7/18/2019" "13:41" "right" 1 2634.889 1 "Post" "PO" "NonPred"
"7xoupuLiWWN49ct7OYCyzg4U1" 1 "1doup" "The_boy_will_throw_the_bear_the_dinosaur" "right" "left" "training" "6/25/2019" "11:32" "right" 1 2029.84 1 "Post" "DO" "NonPred"
"7xoupuLiWWN49ct7OYCyzg4U1" 2 "4doup" "George_will_send_the_donkey_the_fox" "left" "right" "training" "6/25/2019" "11:32" "left" 1 1193.84 1 "Post" "DO" "NonPred"
"7xoupuLiWWN49ct7OYCyzg4U1" 3 "3doup" "Rebecca_Rabbit_will_bring_the_chicken_the_frog" "right" "left" "training" "6/25/2019" "11:32" "right" 1 2620.84 1 "Post" "DO" "NonPred"
"7xoupuLiWWN49ct7OYCyzg4U1" 4 "2doup" "Tigger_will_give_the_zebra_the_butterfly" "right" "left" "training" "6/25/2019" "11:32" "right" 1 6922.84 1 "Post" "DO" "NonPred"
"7xoupuLiWWN49ct7OYCyzg4U1" 5 "12doup" "Winnie_the_pooh_will_show_the_duck_the_owl" "right" "left" "training" "6/25/2019" "11:32" "right" 1 2003.84 1 "Post" "DO" "NonPred"
"7xoupuLiWWN49ct7OYCyzg4U1" 6 "8doup" "Chase_will_give_the_kitten_the_deer" "right" "left" "training" "6/25/2019" "11:32" "right" 1 7283.84 1 "Post" "DO" "NonPred"
"7xoupuLiWWN49ct7OYCyzg4U1" 7 "10doup" "Boots_will_send_the_caterpillar_to_the_pig" "left" "right" "training" "6/25/2019" "11:32" "left" 1 4445.84 1 "Post" "DO" "NonPred"
"7xoupuLiWWN49ct7OYCyzg4U1" 8 "11doup" "Marshall_will_pass_the_bee_the_goat" "right" "left" "training" "6/25/2019" "11:32" "right" 1 7157.84 1 "Post" "DO" "NonPred"
"7xoupuLiWWN49ct7OYCyzg4U1" 9 "5doup" "The_girl_will_pass_the_sheep_the_bird" "left" "right" "training" "6/25/2019" "11:32" "right" 0 3747.84 1 "Post" "DO" "NonPred"
"7xoupuLiWWN49ct7OYCyzg4U1" 10 "6doup" "Piglet_will_show_the_fish_the_ant" "left" "right" "training" "6/25/2019" "11:32" "left" 1 676.84 1 "Post" "DO" "NonPred"
"7xoupuLiWWN49ct7OYCyzg4U1" 11 "9doup" "Dora_the_explorer_will_bring_the_hippo_the_cow" "left" "right" "training" "6/25/2019" "11:32" "right" 0 1988.84 1 "Post" "DO" "NonPred"
"7xoupuLiWWN49ct7OYCyzg4U1" 12 "7doup" "Bob_the_builder_will_throw_the_penguin_the_dog" "left" "right" "training" "6/25/2019" "11:32" "left" 1 1451.84 1 "Post" "DO" "NonPred"
"8j4VM43BeCn8rJgGNRSr36Zqu" 1 "4pop" "George_will_send_the_brush_to_the_donkey" "left" "right" "training" "7/1/2019" "9:58" "left" 1 9059.414 1 "Post" "PO" "Pred"
"8j4VM43BeCn8rJgGNRSr36Zqu" 2 "9pop" "Dora_the_explorer_will_bring_the_spoon_to_the_hippo" "right" "left" "training" "7/1/2019" "9:58" "right" 1 5209.414 1 "Post" "PO" "Pred"
"8j4VM43BeCn8rJgGNRSr36Zqu" 3 "8pop" "Chase_will_give_the_biscuit_to_the_kitten" "right" "left" "training" "7/1/2019" "9:58" "right" 1 2230.414 1 "Post" "PO" "Pred"
"8j4VM43BeCn8rJgGNRSr36Zqu" 4 "5pop" "The_girl_will_pass_the_dress_to_the_sheep" "right" "left" "training" "7/1/2019" "9:58" "right" 1 2666.414 1 "Post" "PO" "Pred"
"8j4VM43BeCn8rJgGNRSr36Zqu" 5 "1pop" "The_boy_will_throw_the_cheese_to_the_bear" "left" "right" "training" "7/1/2019" "9:58" "left" 1 4599.414 1 "Post" "PO" "Pred"
"8j4VM43BeCn8rJgGNRSr36Zqu" 6 "2pop" "Tigger_will_give_the_bottle_to_the_zebra" "left" "right" "training" "7/1/2019" "9:58" "left" 1 1484.414 1 "Post" "PO" "Pred"
"8j4VM43BeCn8rJgGNRSr36Zqu" 7 "6pop" "Piglet_will_show_the_plate_to_the_fish" "right" "left" "training" "7/1/2019" "9:58" "right" 1 1925.414 1 "Post" "PO" "Pred"
"8j4VM43BeCn8rJgGNRSr36Zqu" 8 "3pop" "Rebecca_Rabbit_will_bring_the_pencil_to_the_chicken" "left" "right" "training" "7/1/2019" "9:58" "left" 1 1578.414 1 "Post" "PO" "Pred"
"8j4VM43BeCn8rJgGNRSr36Zqu" 9 "7pop" "Bob_the_builder_will_throw_the_shoe_to_the_penguin" "left" "right" "training" "7/1/2019" "9:58" "left" 1 2185.414 1 "Post" "PO" "Pred"
"8j4VM43BeCn8rJgGNRSr36Zqu" 10 "11pop" "Marshall_will_pass_the_gloves_to_the_bee" "left" "right" "training" "7/1/2019" "9:58" "left" 1 933.414000000001 1 "Post" "PO" "Pred"
"8j4VM43BeCn8rJgGNRSr36Zqu" 11 "12pop" "Winnie_the_pooh_will_show_the_frisbee_to_the_duck" "right" "left" "training" "7/1/2019" "9:58" "right" 1 2184.414 1 "Post" "PO" "Pred"
"8j4VM43BeCn8rJgGNRSr36Zqu" 12 "10pop" "Boots_will_send_the_flower_to_the_caterpillar" "right" "left" "training" "7/1/2019" "9:58" "right" 1 1195.414 1 "Post" "PO" "Pred"
"8jgAPlNrNhf7NHal2NhRU5cKP" 1 "8dop" "Chase_will_give_the_kitten_the_bisuit" "right" "left" "training" "7/8/2019" "10:40" "right" 1 2146.298 1 "Pre" "DO" "Pred"
"8jgAPlNrNhf7NHal2NhRU5cKP" 2 "3dop" "Rebecca_Rabbit_will_bring_the_chicken_the_pencil" "left" "right" "training" "7/8/2019" "10:40" "left" 1 3309.298 1 "Pre" "DO" "Pred"
"8jgAPlNrNhf7NHal2NhRU5cKP" 3 "6dop" "Piglet_will_show_the_fish_the_plate" "right" "left" "training" "7/8/2019" "10:40" "right" 1 1656.298 1 "Pre" "DO" "Pred"
"8jgAPlNrNhf7NHal2NhRU5cKP" 4 "2dop" "Tigger_will_give_the_zebra_the_bottle" "left" "right" "training" "7/8/2019" "10:40" "left" 1 1859.298 1 "Pre" "DO" "Pred"
"8jgAPlNrNhf7NHal2NhRU5cKP" 5 "1dop" "The_boy_will_throw_the_bear_the_cheese" "right" "left" "training" "7/8/2019" "10:40" "right" 1 1960.298 1 "Pre" "DO" "Pred"
"8jgAPlNrNhf7NHal2NhRU5cKP" 6 "10dop" "Boots_will_send_the_caterpillar_the_flower" "left" "right" "training" "7/8/2019" "10:40" "left" 1 4722.298 1 "Pre" "DO" "Pred"
"8jgAPlNrNhf7NHal2NhRU5cKP" 7 "11dop" "Marshall_will_pass_the_bee_the_gloves" "right" "left" "training" "7/8/2019" "10:40" "right" 1 1357.298 1 "Pre" "DO" "Pred"
"8jgAPlNrNhf7NHal2NhRU5cKP" 8 "7dop" "Bob_the_builder_will_throw_the_penguin_the_shoe" "left" "right" "training" "7/8/2019" "10:40" "left" 1 1410.298 1 "Pre" "DO" "Pred"
"8jgAPlNrNhf7NHal2NhRU5cKP" 9 "12dop" "Winnie_the_pooh_will_show_the_duck_the_frisbee" "right" "left" "training" "7/8/2019" "10:40" "right" 1 2110.298 1 "Pre" "DO" "Pred"
"8jgAPlNrNhf7NHal2NhRU5cKP" 10 "9dop" "Dora_the_explorer_will_bring_the_hippo_the_spoon" "left" "right" "training" "7/8/2019" "10:40" "left" 1 2815.298 1 "Pre" "DO" "Pred"
"8jgAPlNrNhf7NHal2NhRU5cKP" 11 "5dop" "The_girl_will_pass_the_sheep_the_dress" "right" "left" "training" "7/8/2019" "10:40" "right" 1 991.297999999999 1 "Pre" "DO" "Pred"
"8jgAPlNrNhf7NHal2NhRU5cKP" 12 "4dop" "George_will_send_the_donkey_the_brush" "left" "right" "training" "7/8/2019" "10:40" "left" 1 1596.298 1 "Pre" "DO" "Pred"
"9oOzdNvMMW6vNEGycT3BoCh0X" 1 "8poup" "Chase_will_give_the_deer_to_the_kitten" "left" "right" "training" "7/18/2019" "12:47" "left" 1 2843.402 1 "Pre" "PO" "NonPred"
"9oOzdNvMMW6vNEGycT3BoCh0X" 2 "5poup" "The_girl_will_pass_the_bird_to_the_sheep" "left" "right" "training" "7/18/2019" "12:47" "left" 1 3380.402 1 "Pre" "PO" "NonPred"
"9oOzdNvMMW6vNEGycT3BoCh0X" 3 "2poup" "Tigger_will_give_the_butterfly_to_the_zebra" "left" "right" "training" "7/18/2019" "12:47" "left" 1 933.402 1 "Pre" "PO" "NonPred"
"9oOzdNvMMW6vNEGycT3BoCh0X" 4 "9poup" "Dora_the_explorer_will_bring_the_cow_to_the_hippo" "right" "left" "training" "7/18/2019" "12:47" "right" 1 2838.402 1 "Pre" "PO" "NonPred"
"9oOzdNvMMW6vNEGycT3BoCh0X" 5 "3poup" "Rebecca_Rabbit_will_bring_the_frog_to_the_chicken" "right" "left" "training" "7/18/2019" "12:47" "right" 1 1146.402 1 "Pre" "PO" "NonPred"
"9oOzdNvMMW6vNEGycT3BoCh0X" 6 "10poup" "Boots_will_send_the_pig_to_the_caterpillar" "left" "right" "training" "7/18/2019" "12:47" "left" 1 3556.402 1 "Pre" "PO" "NonPred"
"9oOzdNvMMW6vNEGycT3BoCh0X" 7 "12poup" "Winnie_the_pooh_will_show_the_owl_to_the_duck" "left" "right" "training" "7/18/2019" "12:47" "left" 1 1488.402 1 "Pre" "PO" "NonPred"
"9oOzdNvMMW6vNEGycT3BoCh0X" 8 "6poup" "Piglet_will_show_the_ant_to_the_fish" "right" "left" "training" "7/18/2019" "12:47" "right" 1 803.402 1 "Pre" "PO" "NonPred"
"9oOzdNvMMW6vNEGycT3BoCh0X" 9 "1poup" "The_boy_will_throw_the_dinosaur_to_the_bear" "right" "left" "training" "7/18/2019" "12:47" "left" 0 8055.402 1 "Pre" "PO" "NonPred"
"9oOzdNvMMW6vNEGycT3BoCh0X" 10 "7poup" "Bob_the_builder_will_throw_the_dog_to_the_penguin" "right" "left" "training" "7/18/2019" "12:47" "right" 1 1266.402 1 "Pre" "PO" "NonPred"
"9oOzdNvMMW6vNEGycT3BoCh0X" 11 "4poup" "George_will_send_the_fox_to_the_donkey" "left" "right" "training" "7/18/2019" "12:47" "right" 0 5716.402 1 "Pre" "PO" "NonPred"
"9oOzdNvMMW6vNEGycT3BoCh0X" 12 "11poup" "Marshall_will_pass_the_goat_to_the_bee" "right" "left" "training" "7/18/2019" "12:47" "right" 1 1070.402 1 "Pre" "PO" "NonPred"
"abk1MlG2uScorBpf4reBJlCSx" 1 "12doup" "Winnie_the_pooh_will_show_the_duck_the_owl" "right" "left" "training" "7/17/2019" "11:09" "right" 1 12386.012 1 "Post" "DO" "NonPred"
"abk1MlG2uScorBpf4reBJlCSx" 2 "1doup" "The_boy_will_throw_the_bear_the_dinosaur" "right" "left" "training" "7/17/2019" "11:09" "right" 1 6073.012 1 "Post" "DO" "NonPred"
"abk1MlG2uScorBpf4reBJlCSx" 3 "7doup" "Bob_the_builder_will_throw_the_penguin_the_dog" "right" "left" "training" "7/17/2019" "11:09" "right" 1 3117.012 1 "Post" "DO" "NonPred"
"abk1MlG2uScorBpf4reBJlCSx" 4 "10doup" "Boots_will_send_the_caterpillar_to_the_pig" "right" "left" "training" "7/17/2019" "11:09" "right" 1 3154.012 1 "Post" "DO" "NonPred"
"abk1MlG2uScorBpf4reBJlCSx" 5 "4doup" "George_will_send_the_donkey_the_fox" "left" "right" "training" "7/17/2019" "11:09" "left" 1 4455.012 1 "Post" "DO" "NonPred"
"abk1MlG2uScorBpf4reBJlCSx" 6 "8doup" "Chase_will_give_the_kitten_the_deer" "left" "right" "training" "7/17/2019" "11:09" "left" 1 9783.012 1 "Post" "DO" "NonPred"
"abk1MlG2uScorBpf4reBJlCSx" 7 "3doup" "Rebecca_Rabbit_will_bring_the_chicken_the_frog" "right" "left" "training" "7/17/2019" "11:09" "right" 1 3154.012 1 "Post" "DO" "NonPred"
"abk1MlG2uScorBpf4reBJlCSx" 8 "9doup" "Dora_the_explorer_will_bring_the_hippo_the_cow" "left" "right" "training" "7/17/2019" "11:09" "left" 1 7487.012 1 "Post" "DO" "NonPred"
"abk1MlG2uScorBpf4reBJlCSx" 9 "6doup" "Piglet_will_show_the_fish_the_ant" "left" "right" "training" "7/17/2019" "11:09" "left" 1 4440.012 1 "Post" "DO" "NonPred"
"abk1MlG2uScorBpf4reBJlCSx" 10 "5doup" "The_girl_will_pass_the_sheep_the_bird" "right" "left" "training" "7/17/2019" "11:09" "right" 1 6718.012 1 "Post" "DO" "NonPred"
"abk1MlG2uScorBpf4reBJlCSx" 11 "11doup" "Marshall_will_pass_the_bee_the_goat" "left" "right" "training" "7/17/2019" "11:09" "left" 1 5008.012 1 "Post" "DO" "NonPred"
"abk1MlG2uScorBpf4reBJlCSx" 12 "2doup" "Tigger_will_give_the_zebra_the_butterfly" "left" "right" "training" "7/17/2019" "11:09" "left" 1 4895.012 1 "Post" "DO" "NonPred"
"ADXIiawnQr5yIJGK7wAHFuoWo" 1 "8dop" "Chase_will_give_the_kitten_the_bisuit" "left" "right" "training" "4/17/2019" "12:56" "left" 1 3964.298 1 "Post" "DO" "Pred"
"ADXIiawnQr5yIJGK7wAHFuoWo" 2 "12dop" "Winnie_the_pooh_will_show_the_duck_the_frisbee" "left" "right" "training" "4/17/2019" "12:56" "left" 1 4062.298 1 "Post" "DO" "Pred"
"ADXIiawnQr5yIJGK7wAHFuoWo" 3 "3dop" "Rebecca_Rabbit_will_bring_the_chicken_the_pencil" "left" "right" "training" "4/17/2019" "12:56" "left" 1 1066.298 1 "Post" "DO" "Pred"
"ADXIiawnQr5yIJGK7wAHFuoWo" 4 "5dop" "The_girl_will_pass_the_sheep_the_dress" "right" "left" "training" "4/17/2019" "12:56" "right" 1 3559.298 1 "Post" "DO" "Pred"
"ADXIiawnQr5yIJGK7wAHFuoWo" 5 "10dop" "Boots_will_send_the_caterpillar_the_flower" "right" "left" "training" "4/17/2019" "12:56" "right" 1 1613.298 1 "Post" "DO" "Pred"
"ADXIiawnQr5yIJGK7wAHFuoWo" 6 "2dop" "Tigger_will_give_the_zebra_the_bottle" "right" "left" "training" "4/17/2019" "12:56" "right" 1 11363.298 1 "Post" "DO" "Pred"
"ADXIiawnQr5yIJGK7wAHFuoWo" 7 "4dop" "George_will_send_the_donkey_the_brush" "right" "left" "training" "4/17/2019" "12:56" "right" 1 17757.298 1 "Post" "DO" "Pred"
"ADXIiawnQr5yIJGK7wAHFuoWo" 8 "9dop" "Dora_the_explorer_will_bring_the_hippo_the_spoon" "left" "right" "training" "4/17/2019" "12:56" "left" 1 12482.298 1 "Post" "DO" "Pred"
"ADXIiawnQr5yIJGK7wAHFuoWo" 9 "7dop" "Bob_the_builder_will_throw_the_penguin_the_shoe" "left" "right" "training" "4/17/2019" "12:56" "left" 1 10949.298 1 "Post" "DO" "Pred"
"ADXIiawnQr5yIJGK7wAHFuoWo" 10 "11dop" "Marshall_will_pass_the_bee_the_gloves" "right" "left" "training" "4/17/2019" "12:56" "right" 1 6972.298 1 "Post" "DO" "Pred"
"ADXIiawnQr5yIJGK7wAHFuoWo" 11 "1dop" "The_boy_will_throw_the_bear_the_cheese" "left" "right" "training" "4/17/2019" "12:56" "left" 1 6381.298 1 "Post" "DO" "Pred"
"ADXIiawnQr5yIJGK7wAHFuoWo" 12 "6dop" "Piglet_will_show_the_fish_the_plate" "right" "left" "training" "4/17/2019" "12:56" "right" 1 1735.298 1 "Post" "DO" "Pred"
"AvrWsudy6bn6efmJizjfrJFJh" 1 "4pop" "George_will_send_the_brush_to_the_donkey" "left" "right" "training" "6/25/2019" "9:21" "left" 1 1958.414 1 "Post" "PO" "Pred"
"AvrWsudy6bn6efmJizjfrJFJh" 2 "10pop" "Boots_will_send_the_flower_to_the_caterpillar" "left" "right" "training" "6/25/2019" "9:21" "left" 1 2107.414 1 "Post" "PO" "Pred"
"AvrWsudy6bn6efmJizjfrJFJh" 3 "9pop" "Dora_the_explorer_will_bring_the_spoon_to_the_hippo" "right" "left" "training" "6/25/2019" "9:21" "right" 1 2525.414 1 "Post" "PO" "Pred"
"AvrWsudy6bn6efmJizjfrJFJh" 4 "7pop" "Bob_the_builder_will_throw_the_shoe_to_the_penguin" "right" "left" "training" "6/25/2019" "9:21" "right" 1 2320.414 1 "Post" "PO" "Pred"
"AvrWsudy6bn6efmJizjfrJFJh" 5 "5pop" "The_girl_will_pass_the_dress_to_the_sheep" "right" "left" "training" "6/25/2019" "9:21" "right" 1 1820.414 2 "Post" "PO" "Pred"
"AvrWsudy6bn6efmJizjfrJFJh" 6 "12pop" "Winnie_the_pooh_will_show_the_frisbee_to_the_duck" "left" "right" "training" "6/25/2019" "9:21" "left" 1 23577.414 1 "Post" "PO" "Pred"
"AvrWsudy6bn6efmJizjfrJFJh" 7 "3pop" "Rebecca_Rabbit_will_bring_the_pencil_to_the_chicken" "left" "right" "training" "6/25/2019" "9:21" "left" 1 3158.414 1 "Post" "PO" "Pred"
"AvrWsudy6bn6efmJizjfrJFJh" 8 "11pop" "Marshall_will_pass_the_gloves_to_the_bee" "right" "left" "training" "6/25/2019" "9:21" "left" 0 7185.414 1 "Post" "PO" "Pred"
"AvrWsudy6bn6efmJizjfrJFJh" 9 "6pop" "Piglet_will_show_the_plate_to_the_fish" "right" "left" "training" "6/25/2019" "9:21" "right" 1 7463.414 1 "Post" "PO" "Pred"
"AvrWsudy6bn6efmJizjfrJFJh" 10 "2pop" "Tigger_will_give_the_bottle_to_the_zebra" "right" "left" "training" "6/25/2019" "9:21" "left" 0 5852.414 1 "Post" "PO" "Pred"
"AvrWsudy6bn6efmJizjfrJFJh" 11 "1pop" "The_boy_will_throw_the_cheese_to_the_bear" "left" "right" "training" "6/25/2019" "9:21" "right" 0 11142.414 1 "Post" "PO" "Pred"
"AvrWsudy6bn6efmJizjfrJFJh" 12 "8pop" "Chase_will_give_the_biscuit_to_the_kitten" "left" "right" "training" "6/25/2019" "9:21" "left" 1 9098.414 1 "Post" "PO" "Pred"
"AX082cIs5N5jjZORvfNQmWpNp" 1 "5pop" "The_girl_will_pass_the_dress_to_the_sheep" "left" "right" "training" "4/24/2019" "11:53" "left" 1 6608.342 1 "Post" "PO" "Pred"
"AX082cIs5N5jjZORvfNQmWpNp" 2 "8pop" "Chase_will_give_the_biscuit_to_the_kitten" "right" "left" "training" "4/24/2019" "11:53" "right" 1 2192.342 1 "Post" "PO" "Pred"
"AX082cIs5N5jjZORvfNQmWpNp" 3 "9pop" "Dora_the_explorer_will_bring_the_spoon_to_the_hippo" "right" "left" "training" "4/24/2019" "11:53" "right" 1 4901.342 1 "Post" "PO" "Pred"
"AX082cIs5N5jjZORvfNQmWpNp" 4 "11pop" "Marshall_will_pass_the_gloves_to_the_bee" "right" "left" "training" "4/24/2019" "11:53" "right" 1 3092.342 1 "Post" "PO" "Pred"
"AX082cIs5N5jjZORvfNQmWpNp" 5 "1pop" "The_boy_will_throw_the_cheese_to_the_bear" "left" "right" "training" "4/24/2019" "11:53" "left" 1 4808.342 1 "Post" "PO" "Pred"
"AX082cIs5N5jjZORvfNQmWpNp" 6 "4pop" "George_will_send_the_brush_to_the_donkey" "left" "right" "training" "4/24/2019" "11:53" "left" 1 3552.342 1 "Post" "PO" "Pred"
"AX082cIs5N5jjZORvfNQmWpNp" 7 "10pop" "Boots_will_send_the_flower_to_the_caterpillar" "right" "left" "training" "4/24/2019" "11:53" "right" 1 6024.342 1 "Post" "PO" "Pred"
"AX082cIs5N5jjZORvfNQmWpNp" 8 "7pop" "Bob_the_builder_will_throw_the_shoe_to_the_penguin" "left" "right" "training" "4/24/2019" "11:53" "left" 1 3518.342 1 "Post" "PO" "Pred"
"AX082cIs5N5jjZORvfNQmWpNp" 9 "2pop" "Tigger_will_give_the_bottle_to_the_zebra" "left" "right" "training" "4/24/2019" "11:53" "left" 1 8783.342 1 "Post" "PO" "Pred"
"AX082cIs5N5jjZORvfNQmWpNp" 10 "3pop" "Rebecca_Rabbit_will_bring_the_pencil_to_the_chicken" "right" "left" "training" "4/24/2019" "11:53" "right" 1 700.342 1 "Post" "PO" "Pred"
"AX082cIs5N5jjZORvfNQmWpNp" 11 "12pop" "Winnie_the_pooh_will_show_the_frisbee_to_the_duck" "left" "right" "training" "4/24/2019" "11:53" "left" 1 4271.342 1 "Post" "PO" "Pred"
"AX082cIs5N5jjZORvfNQmWpNp" 12 "6pop" "Piglet_will_show_the_plate_to_the_fish" "right" "left" "training" "4/24/2019" "11:53" "right" 1 953.342 1 "Post" "PO" "Pred"
"CcaRecvQJxLPFcSqlx9GAxcDv" 1 "5dop" "The_girl_will_pass_the_sheep_the_dress" "left" "right" "training" "7/17/2019" "10:36" "left" 1 27537.946 1 "Post" "DO" "Pred"
"CcaRecvQJxLPFcSqlx9GAxcDv" 2 "2dop" "Tigger_will_give_the_zebra_the_bottle" "left" "right" "training" "7/17/2019" "10:36" "left" 1 10932.946 1 "Post" "DO" "Pred"
"CcaRecvQJxLPFcSqlx9GAxcDv" 3 "10dop" "Boots_will_send_the_caterpillar_the_flower" "right" "left" "training" "7/17/2019" "10:36" "right" 1 9129.946 1 "Post" "DO" "Pred"
"CcaRecvQJxLPFcSqlx9GAxcDv" 4 "8dop" "Chase_will_give_the_kitten_the_bisuit" "right" "left" "training" "7/17/2019" "10:36" "right" 1 7931.946 1 "Post" "DO" "Pred"
"CcaRecvQJxLPFcSqlx9GAxcDv" 5 "6dop" "Piglet_will_show_the_fish_the_plate" "left" "right" "training" "7/17/2019" "10:36" "left" 1 2742.946 1 "Post" "DO" "Pred"
"CcaRecvQJxLPFcSqlx9GAxcDv" 6 "3dop" "Rebecca_Rabbit_will_bring_the_chicken_the_pencil" "left" "right" "training" "7/17/2019" "10:36" "left" 1 2153.946 1 "Post" "DO" "Pred"
"CcaRecvQJxLPFcSqlx9GAxcDv" 7 "11dop" "Marshall_will_pass_the_bee_the_gloves" "right" "left" "training" "7/17/2019" "10:36" "right" 1 1084.946 1 "Post" "DO" "Pred"
"CcaRecvQJxLPFcSqlx9GAxcDv" 8 "12dop" "Winnie_the_pooh_will_show_the_duck_the_frisbee" "left" "right" "training" "7/17/2019" "10:36" "left" 1 18335.946 1 "Post" "DO" "Pred"
"CcaRecvQJxLPFcSqlx9GAxcDv" 9 "4dop" "George_will_send_the_donkey_the_brush" "left" "right" "training" "7/17/2019" "10:36" "left" 1 2380.946 1 "Post" "DO" "Pred"
"CcaRecvQJxLPFcSqlx9GAxcDv" 10 "7dop" "Bob_the_builder_will_throw_the_penguin_the_shoe" "right" "left" "training" "7/17/2019" "10:36" "right" 1 5561.946 1 "Post" "DO" "Pred"
"CcaRecvQJxLPFcSqlx9GAxcDv" 11 "1dop" "The_boy_will_throw_the_bear_the_cheese" "right" "left" "training" "7/17/2019" "10:36" "right" 1 4845.946 1 "Post" "DO" "Pred"
"CcaRecvQJxLPFcSqlx9GAxcDv" 12 "9dop" "Dora_the_explorer_will_bring_the_hippo_the_spoon" "right" "left" "training" "7/17/2019" "10:36" "right" 1 5030.946 1 "Post" "DO" "Pred"
"cLQYf22jOn4YeuPZXT1eHM053" 1 "11doup" "Marshall_will_pass_the_bee_the_goat" "left" "right" "training" "06/05/2019" "14:35" "left" 1 10330.184 1 "Pre" "DO" "NonPred"
"cLQYf22jOn4YeuPZXT1eHM053" 2 "8doup" "Chase_will_give_the_kitten_the_deer" "left" "right" "training" "06/05/2019" "14:35" "left" 1 6341.184 1 "Pre" "DO" "NonPred"
"cLQYf22jOn4YeuPZXT1eHM053" 3 "10doup" "Boots_will_send_the_caterpillar_to_the_pig" "right" "left" "training" "06/05/2019" "14:35" "right" 1 5460.184 1 "Pre" "DO" "NonPred"
"cLQYf22jOn4YeuPZXT1eHM053" 4 "5doup" "The_girl_will_pass_the_sheep_the_bird" "left" "right" "training" "06/05/2019" "14:35" "left" 1 7953.184 1 "Pre" "DO" "NonPred"
"cLQYf22jOn4YeuPZXT1eHM053" 5 "1doup" "The_boy_will_throw_the_bear_the_dinosaur" "right" "left" "training" "06/05/2019" "14:35" "right" 1 5794.184 1 "Pre" "DO" "NonPred"
"cLQYf22jOn4YeuPZXT1eHM053" 6 "6doup" "Piglet_will_show_the_fish_the_ant" "right" "left" "training" "06/05/2019" "14:35" "right" 1 9764.184 1 "Pre" "DO" "NonPred"
"cLQYf22jOn4YeuPZXT1eHM053" 7 "3doup" "Rebecca_Rabbit_will_bring_the_chicken_the_frog" "left" "right" "training" "06/05/2019" "14:35" "left" 1 4777.184 1 "Pre" "DO" "NonPred"
"cLQYf22jOn4YeuPZXT1eHM053" 8 "9doup" "Dora_the_explorer_will_bring_the_hippo_the_cow" "right" "left" "training" "06/05/2019" "14:35" "right" 1 6661.184 1 "Pre" "DO" "NonPred"
"cLQYf22jOn4YeuPZXT1eHM053" 9 "2doup" "Tigger_will_give_the_zebra_the_butterfly" "left" "right" "training" "06/05/2019" "14:35" "left" 1 4810.184 1 "Pre" "DO" "NonPred"
"cLQYf22jOn4YeuPZXT1eHM053" 10 "12doup" "Winnie_the_pooh_will_show_the_duck_the_owl" "right" "left" "training" "06/05/2019" "14:35" "right" 1 6709.184 2 "Pre" "DO" "NonPred"
"cLQYf22jOn4YeuPZXT1eHM053" 11 "4doup" "George_will_send_the_donkey_the_fox" "right" "left" "training" "06/05/2019" "14:35" "right" 1 4013.184 1 "Pre" "DO" "NonPred"
"cLQYf22jOn4YeuPZXT1eHM053" 12 "7doup" "Bob_the_builder_will_throw_the_penguin_the_dog" "left" "right" "training" "06/05/2019" "14:35" "left" 1 6215.184 1 "Pre" "DO" "NonPred"
"Co8n5Rdiwg7ItIlIvt1Y8UAh8" 1 "11dop" "Marshall_will_pass_the_bee_the_gloves" "right" "left" "training" "7/8/2019" "10:58" "right" 1 9672.037 1 "Post" "DO" "Pred"
"Co8n5Rdiwg7ItIlIvt1Y8UAh8" 2 "1dop" "The_boy_will_throw_the_bear_the_cheese" "left" "right" "training" "7/8/2019" "10:58" "left" 1 8737.037 1 "Post" "DO" "Pred"
"Co8n5Rdiwg7ItIlIvt1Y8UAh8" 3 "3dop" "Rebecca_Rabbit_will_bring_the_chicken_the_pencil" "left" "right" "training" "7/8/2019" "10:58" "left" 1 5173.037 1 "Post" "DO" "Pred"
"Co8n5Rdiwg7ItIlIvt1Y8UAh8" 4 "10dop" "Boots_will_send_the_caterpillar_the_flower" "left" "right" "training" "7/8/2019" "10:58" "left" 1 4285.037 1 "Post" "DO" "Pred"
"Co8n5Rdiwg7ItIlIvt1Y8UAh8" 5 "8dop" "Chase_will_give_the_kitten_the_bisuit" "left" "right" "training" "7/8/2019" "10:58" "left" 1 6540.037 1 "Post" "DO" "Pred"
"Co8n5Rdiwg7ItIlIvt1Y8UAh8" 6 "4dop" "George_will_send_the_donkey_the_brush" "right" "left" "training" "7/8/2019" "10:58" "right" 1 6510.037 1 "Post" "DO" "Pred"
"Co8n5Rdiwg7ItIlIvt1Y8UAh8" 7 "7dop" "Bob_the_builder_will_throw_the_penguin_the_shoe" "right" "left" "training" "7/8/2019" "10:58" "right" 1 7244.037 1 "Post" "DO" "Pred"
"Co8n5Rdiwg7ItIlIvt1Y8UAh8" 8 "5dop" "The_girl_will_pass_the_sheep_the_dress" "right" "left" "training" "7/8/2019" "10:58" "right" 1 4507.037 1 "Post" "DO" "Pred"
"Co8n5Rdiwg7ItIlIvt1Y8UAh8" 9 "12dop" "Winnie_the_pooh_will_show_the_duck_the_frisbee" "right" "left" "training" "7/8/2019" "10:58" "right" 1 3894.037 1 "Post" "DO" "Pred"
"Co8n5Rdiwg7ItIlIvt1Y8UAh8" 10 "9dop" "Dora_the_explorer_will_bring_the_hippo_the_spoon" "left" "right" "training" "7/8/2019" "10:58" "left" 1 5488.037 1 "Post" "DO" "Pred"
"Co8n5Rdiwg7ItIlIvt1Y8UAh8" 11 "2dop" "Tigger_will_give_the_zebra_the_bottle" "right" "left" "training" "7/8/2019" "10:58" "right" 1 3657.037 1 "Post" "DO" "Pred"
"Co8n5Rdiwg7ItIlIvt1Y8UAh8" 12 "6dop" "Piglet_will_show_the_fish_the_plate" "left" "right" "training" "7/8/2019" "10:58" "left" 1 4012.037 1 "Post" "DO" "Pred"
"d2mEVFnLVsitRIRfkox2hIgTF" 1 "11doup" "Marshall_will_pass_the_bee_the_goat" "left" "right" "training" "7/2/2019" "12:52" "left" 1 17311.184 1 "Pre" "DO" "NonPred"
"d2mEVFnLVsitRIRfkox2hIgTF" 2 "5doup" "The_girl_will_pass_the_sheep_the_bird" "left" "right" "training" "7/2/2019" "12:52" "left" 1 6458.184 1 "Pre" "DO" "NonPred"
"d2mEVFnLVsitRIRfkox2hIgTF" 3 "7doup" "Bob_the_builder_will_throw_the_penguin_the_dog" "left" "right" "training" "7/2/2019" "12:52" "left" 1 8170.184 1 "Pre" "DO" "NonPred"
"d2mEVFnLVsitRIRfkox2hIgTF" 4 "6doup" "Piglet_will_show_the_fish_the_ant" "right" "left" "training" "7/2/2019" "12:52" "right" 1 8490.184 1 "Pre" "DO" "NonPred"
"d2mEVFnLVsitRIRfkox2hIgTF" 5 "10doup" "Boots_will_send_the_caterpillar_to_the_pig" "right" "left" "training" "7/2/2019" "12:52" "right" 1 4715.184 1 "Pre" "DO" "NonPred"
"d2mEVFnLVsitRIRfkox2hIgTF" 6 "3doup" "Rebecca_Rabbit_will_bring_the_chicken_the_frog" "left" "right" "training" "7/2/2019" "12:52" "left" 1 9407.184 1 "Pre" "DO" "NonPred"
"d2mEVFnLVsitRIRfkox2hIgTF" 7 "2doup" "Tigger_will_give_the_zebra_the_butterfly" "left" "right" "training" "7/2/2019" "12:52" "left" 1 5587.184 1 "Pre" "DO" "NonPred"
"d2mEVFnLVsitRIRfkox2hIgTF" 8 "9doup" "Dora_the_explorer_will_bring_the_hippo_the_cow" "right" "left" "training" "7/2/2019" "12:52" "right" 1 6363.184 1 "Pre" "DO" "NonPred"
"d2mEVFnLVsitRIRfkox2hIgTF" 9 "8doup" "Chase_will_give_the_kitten_the_deer" "right" "left" "training" "7/2/2019" "12:52" "right" 1 6573.184 1 "Pre" "DO" "NonPred"
"d2mEVFnLVsitRIRfkox2hIgTF" 10 "4doup" "George_will_send_the_donkey_the_fox" "left" "right" "training" "7/2/2019" "12:52" "left" 1 5889.184 1 "Pre" "DO" "NonPred"
"d2mEVFnLVsitRIRfkox2hIgTF" 11 "12doup" "Winnie_the_pooh_will_show_the_duck_the_owl" "right" "left" "training" "7/2/2019" "12:52" "right" 1 4149.184 1 "Pre" "DO" "NonPred"
"d2mEVFnLVsitRIRfkox2hIgTF" 12 "1doup" "The_boy_will_throw_the_bear_the_dinosaur" "right" "left" "training" "7/2/2019" "12:52" "right" 1 4755.184 1 "Pre" "DO" "NonPred"
"DuCpKX1bRkSFGjBv9kD8PDads" 1 "4poup" "George_will_send_the_fox_to_the_donkey" "right" "left" "training" "6/17/2019" "10:08" "right" 1 7708.791 1 "Post" "PO" "NonPred"
"DuCpKX1bRkSFGjBv9kD8PDads" 2 "8poup" "Chase_will_give_the_deer_to_the_kitten" "left" "right" "training" "6/17/2019" "10:08" "left" 1 3257.791 1 "Post" "PO" "NonPred"
"DuCpKX1bRkSFGjBv9kD8PDads" 3 "10poup" "Boots_will_send_the_pig_to_the_caterpillar" "right" "left" "training" "6/17/2019" "10:08" "right" 1 3320.791 1 "Post" "PO" "NonPred"
"DuCpKX1bRkSFGjBv9kD8PDads" 4 "12poup" "Winnie_the_pooh_will_show_the_owl_to_the_duck" "right" "left" "training" "6/17/2019" "10:08" "right" 1 5933.791 1 "Post" "PO" "NonPred"
"DuCpKX1bRkSFGjBv9kD8PDads" 5 "7poup" "Bob_the_builder_will_throw_the_dog_to_the_penguin" "left" "right" "training" "6/17/2019" "10:08" "left" 1 3662.791 1 "Post" "PO" "NonPred"
"DuCpKX1bRkSFGjBv9kD8PDads" 6 "1poup" "The_boy_will_throw_the_dinosaur_to_the_bear" "right" "left" "training" "6/17/2019" "10:08" "right" 1 2467.791 1 "Post" "PO" "NonPred"
"DuCpKX1bRkSFGjBv9kD8PDads" 7 "5poup" "The_girl_will_pass_the_bird_to_the_sheep" "right" "left" "training" "6/17/2019" "10:08" "right" 1 3152.791 1 "Post" "PO" "NonPred"
"DuCpKX1bRkSFGjBv9kD8PDads" 8 "3poup" "Rebecca_Rabbit_will_bring_the_frog_to_the_chicken" "left" "right" "training" "6/17/2019" "10:08" "left" 1 1413.791 1 "Post" "PO" "NonPred"
"DuCpKX1bRkSFGjBv9kD8PDads" 9 "9poup" "Dora_the_explorer_will_bring_the_cow_to_the_hippo" "left" "right" "training" "6/17/2019" "10:08" "left" 1 2612.791 1 "Post" "PO" "NonPred"
"DuCpKX1bRkSFGjBv9kD8PDads" 10 "2poup" "Tigger_will_give_the_butterfly_to_the_zebra" "left" "right" "training" "6/17/2019" "10:08" "left" 1 1700.791 1 "Post" "PO" "NonPred"
"DuCpKX1bRkSFGjBv9kD8PDads" 11 "6poup" "Piglet_will_show_the_ant_to_the_fish" "left" "right" "training" "6/17/2019" "10:08" "left" 1 1961.791 1 "Post" "PO" "NonPred"
"DuCpKX1bRkSFGjBv9kD8PDads" 12 "11poup" "Marshall_will_pass_the_goat_to_the_bee" "right" "left" "training" "6/17/2019" "10:08" "right" 1 1337.791 1 "Post" "PO" "NonPred"
"E4eEjp8jdT9dLuiNCdUwCyceJ" 1 "11pop" "Marshall_will_pass_the_gloves_to_the_bee" "right" "left" "training" "7/17/2019" "13:48" "right" 1 8196.535 1 "Pre" "PO" "Pred"
"E4eEjp8jdT9dLuiNCdUwCyceJ" 2 "2pop" "Tigger_will_give_the_bottle_to_the_zebra" "right" "left" "training" "7/17/2019" "13:48" "right" 1 4495.535 1 "Pre" "PO" "Pred"
"E4eEjp8jdT9dLuiNCdUwCyceJ" 3 "1pop" "The_boy_will_throw_the_cheese_to_the_bear" "left" "right" "training" "7/17/2019" "13:48" "left" 1 5067.535 1 "Pre" "PO" "Pred"
"E4eEjp8jdT9dLuiNCdUwCyceJ" 4 "12pop" "Winnie_the_pooh_will_show_the_frisbee_to_the_duck" "right" "left" "training" "7/17/2019" "13:48" "right" 1 4600.535 1 "Pre" "PO" "Pred"
"E4eEjp8jdT9dLuiNCdUwCyceJ" 5 "3pop" "Rebecca_Rabbit_will_bring_the_pencil_to_the_chicken" "right" "left" "training" "7/17/2019" "13:48" "right" 1 3494.535 1 "Pre" "PO" "Pred"
"E4eEjp8jdT9dLuiNCdUwCyceJ" 6 "10pop" "Boots_will_send_the_flower_to_the_caterpillar" "left" "right" "training" "7/17/2019" "13:48" "left" 1 2606.535 1 "Pre" "PO" "Pred"
"E4eEjp8jdT9dLuiNCdUwCyceJ" 7 "7pop" "Bob_the_builder_will_throw_the_shoe_to_the_penguin" "left" "right" "training" "7/17/2019" "13:48" "left" 1 5666.535 1 "Pre" "PO" "Pred"
"E4eEjp8jdT9dLuiNCdUwCyceJ" 8 "6pop" "Piglet_will_show_the_plate_to_the_fish" "left" "right" "training" "7/17/2019" "13:48" "left" 1 2578.535 1 "Pre" "PO" "Pred"
"E4eEjp8jdT9dLuiNCdUwCyceJ" 9 "4pop" "George_will_send_the_brush_to_the_donkey" "right" "left" "training" "7/17/2019" "13:48" "right" 1 3878.535 1 "Pre" "PO" "Pred"
"E4eEjp8jdT9dLuiNCdUwCyceJ" 10 "8pop" "Chase_will_give_the_biscuit_to_the_kitten" "left" "right" "training" "7/17/2019" "13:48" "left" 1 6954.535 1 "Pre" "PO" "Pred"
"E4eEjp8jdT9dLuiNCdUwCyceJ" 11 "9pop" "Dora_the_explorer_will_bring_the_spoon_to_the_hippo" "right" "left" "training" "7/17/2019" "13:48" "right" 1 6762.535 1 "Pre" "PO" "Pred"
"E4eEjp8jdT9dLuiNCdUwCyceJ" 12 "5pop" "The_girl_will_pass_the_dress_to_the_sheep" "left" "right" "training" "7/17/2019" "13:48" "left" 1 6278.535 1 "Pre" "PO" "Pred"
"EgtcuHoFCmCQrm1VqcGgZY6JI" 1 "7doup" "Bob_the_builder_will_throw_the_penguin_the_dog" "right" "left" "training" "7/17/2019" "10:58" "right" 1 9156.442 1 "Pre" "DO" "NonPred"
"EgtcuHoFCmCQrm1VqcGgZY6JI" 2 "3doup" "Rebecca_Rabbit_will_bring_the_chicken_the_frog" "right" "left" "training" "7/17/2019" "10:58" "right" 1 2075.442 1 "Pre" "DO" "NonPred"
"EgtcuHoFCmCQrm1VqcGgZY6JI" 3 "5doup" "The_girl_will_pass_the_sheep_the_bird" "left" "right" "training" "7/17/2019" "10:58" "left" 1 2888.442 1 "Pre" "DO" "NonPred"
"EgtcuHoFCmCQrm1VqcGgZY6JI" 4 "4doup" "George_will_send_the_donkey_the_fox" "left" "right" "training" "7/17/2019" "10:58" "left" 1 1552.442 1 "Pre" "DO" "NonPred"
"EgtcuHoFCmCQrm1VqcGgZY6JI" 5 "1doup" "The_boy_will_throw_the_bear_the_dinosaur" "right" "left" "training" "7/17/2019" "10:58" "right" 1 2933.442 1 "Pre" "DO" "NonPred"
"EgtcuHoFCmCQrm1VqcGgZY6JI" 6 "8doup" "Chase_will_give_the_kitten_the_deer" "right" "left" "training" "7/17/2019" "10:58" "right" 1 1880.442 1 "Pre" "DO" "NonPred"
"EgtcuHoFCmCQrm1VqcGgZY6JI" 7 "2doup" "Tigger_will_give_the_zebra_the_butterfly" "left" "right" "training" "7/17/2019" "10:58" "left" 1 2360.442 1 "Pre" "DO" "NonPred"
"EgtcuHoFCmCQrm1VqcGgZY6JI" 8 "11doup" "Marshall_will_pass_the_bee_the_goat" "left" "right" "training" "7/17/2019" "10:58" "left" 1 1110.442 1 "Pre" "DO" "NonPred"
"EgtcuHoFCmCQrm1VqcGgZY6JI" 9 "6doup" "Piglet_will_show_the_fish_the_ant" "right" "left" "training" "7/17/2019" "10:58" "right" 1 2937.442 1 "Pre" "DO" "NonPred"
"EgtcuHoFCmCQrm1VqcGgZY6JI" 10 "12doup" "Winnie_the_pooh_will_show_the_duck_the_owl" "right" "left" "training" "7/17/2019" "10:58" "right" 1 3190.442 1 "Pre" "DO" "NonPred"
"EgtcuHoFCmCQrm1VqcGgZY6JI" 11 "9doup" "Dora_the_explorer_will_bring_the_hippo_the_cow" "left" "right" "training" "7/17/2019" "10:58" "left" 1 2555.442 1 "Pre" "DO" "NonPred"
"EgtcuHoFCmCQrm1VqcGgZY6JI" 12 "10doup" "Boots_will_send_the_caterpillar_to_the_pig" "left" "right" "training" "7/17/2019" "10:58" "left" 1 1321.442 1 "Pre" "DO" "NonPred"
"eZ7ho2k5zltqLmcrTJh8e9MHq" 1 "6pop" "Piglet_will_show_the_plate_to_the_fish" "right" "left" "training" "7/1/2019" "11:41" "right" 1 15205.1857 1 "Post" "PO" "Pred"
"eZ7ho2k5zltqLmcrTJh8e9MHq" 2 "12pop" "Winnie_the_pooh_will_show_the_frisbee_to_the_duck" "left" "right" "training" "7/1/2019" "11:41" "left" 1 10393.1857 1 "Post" "PO" "Pred"
"eZ7ho2k5zltqLmcrTJh8e9MHq" 3 "10pop" "Boots_will_send_the_flower_to_the_caterpillar" "left" "right" "training" "7/1/2019" "11:41" "left" 1 4657.1857 1 "Post" "PO" "Pred"
"eZ7ho2k5zltqLmcrTJh8e9MHq" 4 "7pop" "Bob_the_builder_will_throw_the_shoe_to_the_penguin" "right" "left" "training" "7/1/2019" "11:41" "right" 1 5062.1857 1 "Post" "PO" "Pred"
"eZ7ho2k5zltqLmcrTJh8e9MHq" 5 "9pop" "Dora_the_explorer_will_bring_the_spoon_to_the_hippo" "right" "left" "training" "7/1/2019" "11:41" "right" 1 6057.1857 1 "Post" "PO" "Pred"
"eZ7ho2k5zltqLmcrTJh8e9MHq" 6 "11pop" "Marshall_will_pass_the_gloves_to_the_bee" "left" "right" "training" "7/1/2019" "11:41" "left" 1 3276.1857 1 "Post" "PO" "Pred"
"eZ7ho2k5zltqLmcrTJh8e9MHq" 7 "4pop" "George_will_send_the_brush_to_the_donkey" "left" "right" "training" "7/1/2019" "11:41" "left" 1 5118.1857 1 "Post" "PO" "Pred"
"eZ7ho2k5zltqLmcrTJh8e9MHq" 8 "2pop" "Tigger_will_give_the_bottle_to_the_zebra" "left" "right" "training" "7/1/2019" "11:41" "left" 1 2644.1857 1 "Post" "PO" "Pred"
"eZ7ho2k5zltqLmcrTJh8e9MHq" 9 "1pop" "The_boy_will_throw_the_cheese_to_the_bear" "right" "left" "training" "7/1/2019" "11:41" "right" 1 5054.1857 1 "Post" "PO" "Pred"
"eZ7ho2k5zltqLmcrTJh8e9MHq" 10 "8pop" "Chase_will_give_the_biscuit_to_the_kitten" "left" "right" "training" "7/1/2019" "11:41" "left" 1 2539.1857 1 "Post" "PO" "Pred"
"eZ7ho2k5zltqLmcrTJh8e9MHq" 11 "5pop" "The_girl_will_pass_the_dress_to_the_sheep" "right" "left" "training" "7/1/2019" "11:41" "right" 1 4120.1857 1 "Post" "PO" "Pred"
"eZ7ho2k5zltqLmcrTJh8e9MHq" 12 "3pop" "Rebecca_Rabbit_will_bring_the_pencil_to_the_chicken" "right" "left" "training" "7/1/2019" "11:41" "right" 1 2159.1857 1 "Post" "PO" "Pred"
"f42rNTils7J01GqEXJ97wb5Sp" 1 "6doup" "Piglet_will_show_the_fish_the_ant" "right" "left" "training" "7/17/2019" "9:34" "right" 1 12841.352 1 "Post" "DO" "NonPred"
"f42rNTils7J01GqEXJ97wb5Sp" 2 "8doup" "Chase_will_give_the_kitten_the_deer" "left" "right" "training" "7/17/2019" "9:34" "left" 1 5551.352 1 "Post" "DO" "NonPred"
"f42rNTils7J01GqEXJ97wb5Sp" 3 "2doup" "Tigger_will_give_the_zebra_the_butterfly" "right" "left" "training" "7/17/2019" "9:34" "right" 1 4402.352 1 "Post" "DO" "NonPred"
"f42rNTils7J01GqEXJ97wb5Sp" 4 "5doup" "The_girl_will_pass_the_sheep_the_bird" "left" "right" "training" "7/17/2019" "9:34" "left" 1 7546.352 1 "Post" "DO" "NonPred"
"f42rNTils7J01GqEXJ97wb5Sp" 5 "3doup" "Rebecca_Rabbit_will_bring_the_chicken_the_frog" "right" "left" "training" "7/17/2019" "9:34" "right" 1 5969.352 1 "Post" "DO" "NonPred"
"f42rNTils7J01GqEXJ97wb5Sp" 6 "11doup" "Marshall_will_pass_the_bee_the_goat" "left" "right" "training" "7/17/2019" "9:34" "left" 1 3996.352 1 "Post" "DO" "NonPred"
"f42rNTils7J01GqEXJ97wb5Sp" 7 "1doup" "The_boy_will_throw_the_bear_the_dinosaur" "right" "left" "training" "7/17/2019" "9:34" "left" 0 2258.352 1 "Post" "DO" "NonPred"
"f42rNTils7J01GqEXJ97wb5Sp" 8 "7doup" "Bob_the_builder_will_throw_the_penguin_the_dog" "left" "right" "training" "7/17/2019" "9:34" "left" 1 9575.352 1 "Post" "DO" "NonPred"
"f42rNTils7J01GqEXJ97wb5Sp" 9 "4doup" "George_will_send_the_donkey_the_fox" "left" "right" "training" "7/17/2019" "9:34" "left" 1 4932.352 1 "Post" "DO" "NonPred"
"f42rNTils7J01GqEXJ97wb5Sp" 10 "12doup" "Winnie_the_pooh_will_show_the_duck_the_owl" "right" "left" "training" "7/17/2019" "9:34" "right" 1 6022.352 1 "Post" "DO" "NonPred"
"f42rNTils7J01GqEXJ97wb5Sp" 11 "10doup" "Boots_will_send_the_caterpillar_to_the_pig" "right" "left" "training" "7/17/2019" "9:34" "right" 1 4404.352 1 "Post" "DO" "NonPred"
"f42rNTils7J01GqEXJ97wb5Sp" 12 "9doup" "Dora_the_explorer_will_bring_the_hippo_the_cow" "left" "right" "training" "7/17/2019" "9:34" "left" 1 6389.352 1 "Post" "DO" "NonPred"
"FdODjTefLNBHciMwmAY0fzy0s" 1 "8dop" "Chase_will_give_the_kitten_the_bisuit" "right" "left" "training" "7/18/2019" "13:12" "right" 1 16415.298 1 "Post" "DO" "Pred"
"FdODjTefLNBHciMwmAY0fzy0s" 2 "5dop" "The_girl_will_pass_the_sheep_the_dress" "left" "right" "training" "7/18/2019" "13:12" "left" 1 6856.298 1 "Post" "DO" "Pred"
"FdODjTefLNBHciMwmAY0fzy0s" 3 "1dop" "The_boy_will_throw_the_bear_the_cheese" "left" "right" "training" "7/18/2019" "13:12" "left" 1 11973.298 1 "Post" "DO" "Pred"
"FdODjTefLNBHciMwmAY0fzy0s" 4 "7dop" "Bob_the_builder_will_throw_the_penguin_the_shoe" "left" "right" "training" "7/18/2019" "13:12" "left" 1 8593.298 1 "Post" "DO" "Pred"
"FdODjTefLNBHciMwmAY0fzy0s" 5 "6dop" "Piglet_will_show_the_fish_the_plate" "right" "left" "training" "7/18/2019" "13:12" "right" 1 2849.298 1 "Post" "DO" "Pred"
"FdODjTefLNBHciMwmAY0fzy0s" 6 "9dop" "Dora_the_explorer_will_bring_the_hippo_the_spoon" "left" "right" "training" "7/18/2019" "13:12" "left" 1 5720.298 1 "Post" "DO" "Pred"
"FdODjTefLNBHciMwmAY0fzy0s" 7 "4dop" "George_will_send_the_donkey_the_brush" "right" "left" "training" "7/18/2019" "13:12" "right" 1 4424.298 1 "Post" "DO" "Pred"
"FdODjTefLNBHciMwmAY0fzy0s" 8 "2dop" "Tigger_will_give_the_zebra_the_bottle" "right" "left" "training" "7/18/2019" "13:12" "right" 1 1404.298 1 "Post" "DO" "Pred"
"FdODjTefLNBHciMwmAY0fzy0s" 9 "12dop" "Winnie_the_pooh_will_show_the_duck_the_frisbee" "right" "left" "training" "7/18/2019" "13:12" "right" 1 2555.298 1 "Post" "DO" "Pred"
"FdODjTefLNBHciMwmAY0fzy0s" 10 "11dop" "Marshall_will_pass_the_bee_the_gloves" "left" "right" "training" "7/18/2019" "13:12" "left" 1 2407.298 1 "Post" "DO" "Pred"
"FdODjTefLNBHciMwmAY0fzy0s" 11 "10dop" "Boots_will_send_the_caterpillar_the_flower" "left" "right" "training" "7/18/2019" "13:12" "left" 1 1442.298 1 "Post" "DO" "Pred"
"FdODjTefLNBHciMwmAY0fzy0s" 12 "3dop" "Rebecca_Rabbit_will_bring_the_chicken_the_pencil" "right" "left" "training" "7/18/2019" "13:12" "right" 1 2704.298 1 "Post" "DO" "Pred"
"FjsXiQzIKRCaqW3ZWdhmDY6qC" 1 "9doup" "Dora_the_explorer_will_bring_the_hippo_the_cow" "right" "left" "training" "7/18/2019" "9:36" "right" 1 12321.748 1 "Pre" "DO" "NonPred"
"FjsXiQzIKRCaqW3ZWdhmDY6qC" 2 "5doup" "The_girl_will_pass_the_sheep_the_bird" "left" "right" "training" "7/18/2019" "9:36" "left" 1 8097.748 1 "Pre" "DO" "NonPred"
"FjsXiQzIKRCaqW3ZWdhmDY6qC" 3 "2doup" "Tigger_will_give_the_zebra_the_butterfly" "right" "left" "training" "7/18/2019" "9:36" "right" 1 1296.748 1 "Pre" "DO" "NonPred"
"FjsXiQzIKRCaqW3ZWdhmDY6qC" 4 "12doup" "Winnie_the_pooh_will_show_the_duck_the_owl" "left" "right" "training" "7/18/2019" "9:36" "left" 1 2095.748 1 "Pre" "DO" "NonPred"
"FjsXiQzIKRCaqW3ZWdhmDY6qC" 5 "11doup" "Marshall_will_pass_the_bee_the_goat" "left" "right" "training" "7/18/2019" "9:36" "left" 1 2084.748 1 "Pre" "DO" "NonPred"
"FjsXiQzIKRCaqW3ZWdhmDY6qC" 6 "3doup" "Rebecca_Rabbit_will_bring_the_chicken_the_frog" "right" "left" "training" "7/18/2019" "9:36" "left" 0 1206.748 1 "Pre" "DO" "NonPred"
"FjsXiQzIKRCaqW3ZWdhmDY6qC" 7 "8doup" "Chase_will_give_the_kitten_the_deer" "left" "right" "training" "7/18/2019" "9:36" "left" 1 3139.748 1 "Pre" "DO" "NonPred"
"FjsXiQzIKRCaqW3ZWdhmDY6qC" 8 "6doup" "Piglet_will_show_the_fish_the_ant" "left" "right" "training" "7/18/2019" "9:36" "left" 1 1146.748 1 "Pre" "DO" "NonPred"
"FjsXiQzIKRCaqW3ZWdhmDY6qC" 9 "7doup" "Bob_the_builder_will_throw_the_penguin_the_dog" "right" "left" "training" "7/18/2019" "9:36" "left" 0 2167.748 1 "Pre" "DO" "NonPred"
"FjsXiQzIKRCaqW3ZWdhmDY6qC" 10 "1doup" "The_boy_will_throw_the_bear_the_dinosaur" "left" "right" "training" "7/18/2019" "9:36" "left" 1 1668.748 1 "Pre" "DO" "NonPred"
"FjsXiQzIKRCaqW3ZWdhmDY6qC" 11 "4doup" "George_will_send_the_donkey_the_fox" "right" "left" "training" "7/18/2019" "9:36" "right" 1 2614.748 1 "Pre" "DO" "NonPred"
"FjsXiQzIKRCaqW3ZWdhmDY6qC" 12 "10doup" "Boots_will_send_the_caterpillar_to_the_pig" "right" "left" "training" "7/18/2019" "9:36" "right" 1 1083.748 1 "Pre" "DO" "NonPred"
"FwqPAwsJHhtqk1alRgW3QGzE2" 1 "2poup" "Tigger_will_give_the_butterfly_to_the_zebra" "left" "right" "training" "7/24/2019" "11:05" "left" 1 6603.44 1 "Post" "PO" "NonPred"
"FwqPAwsJHhtqk1alRgW3QGzE2" 2 "11poup" "Marshall_will_pass_the_goat_to_the_bee" "right" "left" "training" "7/24/2019" "11:05" "right" 1 4444.44 1 "Post" "PO" "NonPred"
"FwqPAwsJHhtqk1alRgW3QGzE2" 3 "9poup" "Dora_the_explorer_will_bring_the_cow_to_the_hippo" "left" "right" "training" "7/24/2019" "11:05" "left" 1 3919.44 1 "Post" "PO" "NonPred"
"FwqPAwsJHhtqk1alRgW3QGzE2" 4 "1poup" "The_boy_will_throw_the_dinosaur_to_the_bear" "right" "left" "training" "7/24/2019" "11:05" "right" 1 3852.44 1 "Post" "PO" "NonPred"
"FwqPAwsJHhtqk1alRgW3QGzE2" 5 "3poup" "Rebecca_Rabbit_will_bring_the_frog_to_the_chicken" "right" "left" "training" "7/24/2019" "11:05" "right" 1 3275.44 1 "Post" "PO" "NonPred"
"FwqPAwsJHhtqk1alRgW3QGzE2" 6 "8poup" "Chase_will_give_the_deer_to_the_kitten" "left" "right" "training" "7/24/2019" "11:05" "left" 1 5005.44 1 "Post" "PO" "NonPred"
"FwqPAwsJHhtqk1alRgW3QGzE2" 7 "4poup" "George_will_send_the_fox_to_the_donkey" "left" "right" "training" "7/24/2019" "11:05" "left" 1 2070.44 1 "Post" "PO" "NonPred"
"FwqPAwsJHhtqk1alRgW3QGzE2" 8 "5poup" "The_girl_will_pass_the_bird_to_the_sheep" "right" "left" "training" "7/24/2019" "11:05" "right" 1 2763.44 1 "Post" "PO" "NonPred"
"FwqPAwsJHhtqk1alRgW3QGzE2" 9 "7poup" "Bob_the_builder_will_throw_the_dog_to_the_penguin" "right" "left" "training" "7/24/2019" "11:05" "right" 1 3781.44 1 "Post" "PO" "NonPred"
"FwqPAwsJHhtqk1alRgW3QGzE2" 10 "10poup" "Boots_will_send_the_pig_to_the_caterpillar" "left" "right" "training" "7/24/2019" "11:05" "left" 1 2799.44 1 "Post" "PO" "NonPred"
"FwqPAwsJHhtqk1alRgW3QGzE2" 11 "12poup" "Winnie_the_pooh_will_show_the_owl_to_the_duck" "right" "left" "training" "7/24/2019" "11:05" "right" 1 3500.44 1 "Post" "PO" "NonPred"
"FwqPAwsJHhtqk1alRgW3QGzE2" 12 "6poup" "Piglet_will_show_the_ant_to_the_fish" "left" "right" "training" "7/24/2019" "11:05" "left" 1 4697.44 1 "Post" "PO" "NonPred"
"g7Fmlktygd1UIcn5PL2AFBsjm" 1 "6doup" "Piglet_will_show_the_fish_the_ant" "right" "left" "training" "7/1/2019" "13:08" "right" 1 14585.352 1 "Post" "DO" "NonPred"
"g7Fmlktygd1UIcn5PL2AFBsjm" 2 "8doup" "Chase_will_give_the_kitten_the_deer" "right" "left" "training" "7/1/2019" "13:08" "right" 1 7540.352 1 "Post" "DO" "NonPred"
"g7Fmlktygd1UIcn5PL2AFBsjm" 3 "10doup" "Boots_will_send_the_caterpillar_to_the_pig" "right" "left" "training" "7/1/2019" "13:08" "right" 1 5440.352 1 "Post" "DO" "NonPred"
"g7Fmlktygd1UIcn5PL2AFBsjm" 4 "1doup" "The_boy_will_throw_the_bear_the_dinosaur" "right" "left" "training" "7/1/2019" "13:08" "left" 0 4757.352 1 "Post" "DO" "NonPred"
"g7Fmlktygd1UIcn5PL2AFBsjm" 5 "3doup" "Rebecca_Rabbit_will_bring_the_chicken_the_frog" "left" "right" "training" "7/1/2019" "13:08" "right" 0 1391.352 1 "Post" "DO" "NonPred"
"g7Fmlktygd1UIcn5PL2AFBsjm" 6 "5doup" "The_girl_will_pass_the_sheep_the_bird" "right" "left" "training" "7/1/2019" "13:08" "right" 1 3890.352 1 "Post" "DO" "NonPred"
"g7Fmlktygd1UIcn5PL2AFBsjm" 7 "11doup" "Marshall_will_pass_the_bee_the_goat" "left" "right" "training" "7/1/2019" "13:08" "left" 1 2532.352 1 "Post" "DO" "NonPred"
"g7Fmlktygd1UIcn5PL2AFBsjm" 8 "9doup" "Dora_the_explorer_will_bring_the_hippo_the_cow" "left" "right" "training" "7/1/2019" "13:08" "left" 1 3911.352 1 "Post" "DO" "NonPred"
"g7Fmlktygd1UIcn5PL2AFBsjm" 9 "2doup" "Tigger_will_give_the_zebra_the_butterfly" "left" "right" "training" "7/1/2019" "13:08" "left" 1 4180.352 1 "Post" "DO" "NonPred"
"g7Fmlktygd1UIcn5PL2AFBsjm" 10 "4doup" "George_will_send_the_donkey_the_fox" "left" "right" "training" "7/1/2019" "13:08" "left" 1 2388.352 1 "Post" "DO" "NonPred"
"g7Fmlktygd1UIcn5PL2AFBsjm" 11 "12doup" "Winnie_the_pooh_will_show_the_duck_the_owl" "left" "right" "training" "7/1/2019" "13:08" "left" 1 2057.352 1 "Post" "DO" "NonPred"
"g7Fmlktygd1UIcn5PL2AFBsjm" 12 "7doup" "Bob_the_builder_will_throw_the_penguin_the_dog" "right" "left" "training" "7/1/2019" "13:08" "right" 1 2887.352 1 "Post" "DO" "NonPred"
"GQLgHmxXdeTrRxApGRccaywgx" 1 "8poup" "Chase_will_give_the_deer_to_the_kitten" "left" "right" "training" "6/25/2019" "9:21" "left" 1 3750.402 1 "Pre" "PO" "NonPred"
"GQLgHmxXdeTrRxApGRccaywgx" 2 "1poup" "The_boy_will_throw_the_dinosaur_to_the_bear" "left" "right" "training" "6/25/2019" "9:21" "right" 0 3322.402 1 "Pre" "PO" "NonPred"
"GQLgHmxXdeTrRxApGRccaywgx" 3 "7poup" "Bob_the_builder_will_throw_the_dog_to_the_penguin" "left" "right" "training" "6/25/2019" "9:21" "left" 1 3157.402 1 "Pre" "PO" "NonPred"
"GQLgHmxXdeTrRxApGRccaywgx" 4 "3poup" "Rebecca_Rabbit_will_bring_the_frog_to_the_chicken" "right" "left" "training" "6/25/2019" "9:21" "right" 1 2245.402 1 "Pre" "PO" "NonPred"
"GQLgHmxXdeTrRxApGRccaywgx" 5 "5poup" "The_girl_will_pass_the_bird_to_the_sheep" "right" "left" "training" "6/25/2019" "9:21" "right" 1 3298.402 4 "Pre" "PO" "NonPred"
"GQLgHmxXdeTrRxApGRccaywgx" 6 "9poup" "Dora_the_explorer_will_bring_the_cow_to_the_hippo" "left" "right" "training" "6/25/2019" "9:21" "left" 1 2319.402 1 "Pre" "PO" "NonPred"
"GQLgHmxXdeTrRxApGRccaywgx" 7 "6poup" "Piglet_will_show_the_ant_to_the_fish" "right" "left" "training" "6/25/2019" "9:21" "left" 0 1997.402 5 "Pre" "PO" "NonPred"
"GQLgHmxXdeTrRxApGRccaywgx" 8 "4poup" "George_will_send_the_fox_to_the_donkey" "right" "left" "training" "6/25/2019" "9:21" "right" 1 4617.402 1 "Pre" "PO" "NonPred"
"GQLgHmxXdeTrRxApGRccaywgx" 9 "12poup" "Winnie_the_pooh_will_show_the_owl_to_the_duck" "left" "right" "training" "6/25/2019" "9:21" "left" 1 5700.402 1 "Pre" "PO" "NonPred"
"GQLgHmxXdeTrRxApGRccaywgx" 10 "2poup" "Tigger_will_give_the_butterfly_to_the_zebra" "right" "left" "training" "6/25/2019" "9:21" "right" 1 2587.402 1 "Pre" "PO" "NonPred"
"GQLgHmxXdeTrRxApGRccaywgx" 11 "10poup" "Boots_will_send_the_pig_to_the_caterpillar" "right" "left" "training" "6/25/2019" "9:21" "right" 1 1395.402 1 "Pre" "PO" "NonPred"
"GQLgHmxXdeTrRxApGRccaywgx" 12 "11poup" "Marshall_will_pass_the_goat_to_the_bee" "left" "right" "training" "6/25/2019" "9:21" "left" 1 1579.402 1 "Pre" "PO" "NonPred"
"H9yGpPYpoulJelMr19gxSWT9I" 1 "2pop" "Tigger_will_give_the_bottle_to_the_zebra" "right" "left" "training" "6/25/2019" "11:54" "right" 1 8482.966 1 "Post" "PO" "Pred"
"H9yGpPYpoulJelMr19gxSWT9I" 2 "12pop" "Winnie_the_pooh_will_show_the_frisbee_to_the_duck" "left" "right" "training" "6/25/2019" "11:54" "left" 1 5314.966 1 "Post" "PO" "Pred"
"H9yGpPYpoulJelMr19gxSWT9I" 3 "7pop" "Bob_the_builder_will_throw_the_shoe_to_the_penguin" "right" "left" "training" "6/25/2019" "11:54" "right" 1 5791.966 1 "Post" "PO" "Pred"
"H9yGpPYpoulJelMr19gxSWT9I" 4 "3pop" "Rebecca_Rabbit_will_bring_the_pencil_to_the_chicken" "left" "right" "training" "6/25/2019" "11:54" "left" 1 3380.966 1 "Post" "PO" "Pred"
"H9yGpPYpoulJelMr19gxSWT9I" 5 "4pop" "George_will_send_the_brush_to_the_donkey" "left" "right" "training" "6/25/2019" "11:54" "left" 1 13386.966 1 "Post" "PO" "Pred"
"H9yGpPYpoulJelMr19gxSWT9I" 6 "8pop" "Chase_will_give_the_biscuit_to_the_kitten" "right" "left" "training" "6/25/2019" "11:54" "right" 1 2653.966 1 "Post" "PO" "Pred"
"H9yGpPYpoulJelMr19gxSWT9I" 7 "6pop" "Piglet_will_show_the_plate_to_the_fish" "left" "right" "training" "6/25/2019" "11:54" "left" 1 3288.966 1 "Post" "PO" "Pred"
"H9yGpPYpoulJelMr19gxSWT9I" 8 "9pop" "Dora_the_explorer_will_bring_the_spoon_to_the_hippo" "left" "right" "training" "6/25/2019" "11:54" "left" 1 3537.966 1 "Post" "PO" "Pred"
"H9yGpPYpoulJelMr19gxSWT9I" 9 "10pop" "Boots_will_send_the_flower_to_the_caterpillar" "left" "right" "training" "6/25/2019" "11:54" "left" 1 5986.966 1 "Post" "PO" "Pred"
"H9yGpPYpoulJelMr19gxSWT9I" 10 "5pop" "The_girl_will_pass_the_dress_to_the_sheep" "right" "left" "training" "6/25/2019" "11:54" "right" 1 3764.966 1 "Post" "PO" "Pred"
"H9yGpPYpoulJelMr19gxSWT9I" 11 "11pop" "Marshall_will_pass_the_gloves_to_the_bee" "right" "left" "training" "6/25/2019" "11:54" "right" 1 2122.966 1 "Post" "PO" "Pred"
"H9yGpPYpoulJelMr19gxSWT9I" 12 "1pop" "The_boy_will_throw_the_cheese_to_the_bear" "right" "left" "training" "6/25/2019" "11:54" "right" 1 4085.966 1 "Post" "PO" "Pred"
"HyCwP4l2LpCGQwMyERezuEdsp" 1 "7doup" "Bob_the_builder_will_throw_the_penguin_the_dog" "right" "left" "training" "6/25/2019" "11:12" "right" 1 6485.442 1 "Post" "DO" "NonPred"
"HyCwP4l2LpCGQwMyERezuEdsp" 2 "10doup" "Boots_will_send_the_caterpillar_to_the_pig" "left" "right" "training" "6/25/2019" "11:12" "left" 1 1275.442 1 "Post" "DO" "NonPred"
"HyCwP4l2LpCGQwMyERezuEdsp" 3 "1doup" "The_boy_will_throw_the_bear_the_dinosaur" "left" "right" "training" "6/25/2019" "11:12" "left" 1 2521.442 1 "Post" "DO" "NonPred"
"HyCwP4l2LpCGQwMyERezuEdsp" 4 "12doup" "Winnie_the_pooh_will_show_the_duck_the_owl" "left" "right" "training" "6/25/2019" "11:12" "left" 1 2820.442 1 "Post" "DO" "NonPred"
"HyCwP4l2LpCGQwMyERezuEdsp" 5 "4doup" "George_will_send_the_donkey_the_fox" "left" "right" "training" "6/25/2019" "11:12" "left" 1 1488.442 1 "Post" "DO" "NonPred"
"HyCwP4l2LpCGQwMyERezuEdsp" 6 "5doup" "The_girl_will_pass_the_sheep_the_bird" "left" "right" "training" "6/25/2019" "11:12" "left" 1 864.441999999999 1 "Post" "DO" "NonPred"
"HyCwP4l2LpCGQwMyERezuEdsp" 7 "8doup" "Chase_will_give_the_kitten_the_deer" "right" "left" "training" "6/25/2019" "11:12" "right" 1 3821.442 1 "Post" "DO" "NonPred"
"HyCwP4l2LpCGQwMyERezuEdsp" 8 "2doup" "Tigger_will_give_the_zebra_the_butterfly" "right" "left" "training" "6/25/2019" "11:12" "right" 1 4861.442 1 "Post" "DO" "NonPred"
"HyCwP4l2LpCGQwMyERezuEdsp" 9 "3doup" "Rebecca_Rabbit_will_bring_the_chicken_the_frog" "left" "right" "training" "6/25/2019" "11:12" "left" 1 2585.442 2 "Post" "DO" "NonPred"
"HyCwP4l2LpCGQwMyERezuEdsp" 10 "9doup" "Dora_the_explorer_will_bring_the_hippo_the_cow" "right" "left" "training" "6/25/2019" "11:12" "right" 1 4310.442 4 "Post" "DO" "NonPred"
"HyCwP4l2LpCGQwMyERezuEdsp" 11 "6doup" "Piglet_will_show_the_fish_the_ant" "right" "left" "training" "6/25/2019" "11:12" "right" 1 2676.442 2 "Post" "DO" "NonPred"
"HyCwP4l2LpCGQwMyERezuEdsp" 12 "11doup" "Marshall_will_pass_the_bee_the_goat" "right" "left" "training" "6/25/2019" "11:12" "right" 1 1821.442 3 "Post" "DO" "NonPred"
"IJRTd7WULy3UcrqSAj58fK5Hk" 1 "3poup" "Rebecca_Rabbit_will_bring_the_frog_to_the_chicken" "right" "left" "training" "7/18/2019" "14:23" "left" 0 5247.435 1 "Post" "PO" "NonPred"
"IJRTd7WULy3UcrqSAj58fK5Hk" 2 "11poup" "Marshall_will_pass_the_goat_to_the_bee" "right" "left" "training" "7/18/2019" "14:23" "right" 1 7746.435 1 "Post" "PO" "NonPred"
"IJRTd7WULy3UcrqSAj58fK5Hk" 3 "1poup" "The_boy_will_throw_the_dinosaur_to_the_bear" "left" "right" "training" "7/18/2019" "14:23" "left" 1 5462.435 1 "Post" "PO" "NonPred"
"IJRTd7WULy3UcrqSAj58fK5Hk" 4 "10poup" "Boots_will_send_the_pig_to_the_caterpillar" "right" "left" "training" "7/18/2019" "14:23" "right" 1 12176.435 1 "Post" "PO" "NonPred"
"IJRTd7WULy3UcrqSAj58fK5Hk" 5 "2poup" "Tigger_will_give_the_butterfly_to_the_zebra" "left" "right" "training" "7/18/2019" "14:23" "left" 1 29144.435 1 "Post" "PO" "NonPred"
"IJRTd7WULy3UcrqSAj58fK5Hk" 6 "8poup" "Chase_will_give_the_deer_to_the_kitten" "right" "left" "training" "7/18/2019" "14:23" "left" 0 3331.435 1 "Post" "PO" "NonPred"
"IJRTd7WULy3UcrqSAj58fK5Hk" 7 "12poup" "Winnie_the_pooh_will_show_the_owl_to_the_duck" "right" "left" "training" "7/18/2019" "14:23" "left" 0 4250.435 1 "Post" "PO" "NonPred"
"IJRTd7WULy3UcrqSAj58fK5Hk" 8 "9poup" "Dora_the_explorer_will_bring_the_cow_to_the_hippo" "left" "right" "training" "7/18/2019" "14:23" "left" 1 3268.435 1 "Post" "PO" "NonPred"
"IJRTd7WULy3UcrqSAj58fK5Hk" 9 "7poup" "Bob_the_builder_will_throw_the_dog_to_the_penguin" "left" "right" "training" "7/18/2019" "14:23" "left" 1 2818.435 1 "Post" "PO" "NonPred"
"IJRTd7WULy3UcrqSAj58fK5Hk" 10 "5poup" "The_girl_will_pass_the_bird_to_the_sheep" "left" "right" "training" "7/18/2019" "14:23" "left" 1 5536.435 1 "Post" "PO" "NonPred"
"IJRTd7WULy3UcrqSAj58fK5Hk" 11 "4poup" "George_will_send_the_fox_to_the_donkey" "right" "left" "training" "7/18/2019" "14:23" "left" 0 7274.435 1 "Post" "PO" "NonPred"
"IJRTd7WULy3UcrqSAj58fK5Hk" 12 "6poup" "Piglet_will_show_the_ant_to_the_fish" "left" "right" "training" "7/18/2019" "14:23" "left" 1 9856.435 1 "Post" "PO" "NonPred"
"iLumJFeKJT74QSXxlJLJx63CE" 1 "7pop" "Bob_the_builder_will_throw_the_shoe_to_the_penguin" "left" "right" "training" "7/18/2019" "11:09" "left" 1 19117.69 1 "Post" "PO" "Pred"
"iLumJFeKJT74QSXxlJLJx63CE" 2 "11pop" "Marshall_will_pass_the_gloves_to_the_bee" "left" "right" "training" "7/18/2019" "11:09" "left" 1 2464.69 1 "Post" "PO" "Pred"
"iLumJFeKJT74QSXxlJLJx63CE" 3 "1pop" "The_boy_will_throw_the_cheese_to_the_bear" "left" "right" "training" "7/18/2019" "11:09" "left" 1 5582.69 1 "Post" "PO" "Pred"
"iLumJFeKJT74QSXxlJLJx63CE" 4 "9pop" "Dora_the_explorer_will_bring_the_spoon_to_the_hippo" "right" "left" "training" "7/18/2019" "11:09" "right" 1 6542.69 1 "Post" "PO" "Pred"
"iLumJFeKJT74QSXxlJLJx63CE" 5 "12pop" "Winnie_the_pooh_will_show_the_frisbee_to_the_duck" "left" "right" "training" "7/18/2019" "11:09" "left" 1 1602.69 1 "Post" "PO" "Pred"
"iLumJFeKJT74QSXxlJLJx63CE" 6 "3pop" "Rebecca_Rabbit_will_bring_the_pencil_to_the_chicken" "right" "left" "training" "7/18/2019" "11:09" "right" 1 2071.69 1 "Post" "PO" "Pred"
"iLumJFeKJT74QSXxlJLJx63CE" 7 "2pop" "Tigger_will_give_the_bottle_to_the_zebra" "right" "left" "training" "7/18/2019" "11:09" "right" 1 10259.69 2 "Post" "PO" "Pred"
"iLumJFeKJT74QSXxlJLJx63CE" 8 "6pop" "Piglet_will_show_the_plate_to_the_fish" "left" "right" "training" "7/18/2019" "11:09" "left" 1 1183.69 1 "Post" "PO" "Pred"
"iLumJFeKJT74QSXxlJLJx63CE" 9 "8pop" "Chase_will_give_the_biscuit_to_the_kitten" "right" "left" "training" "7/18/2019" "11:09" "right" 1 2778.69 1 "Post" "PO" "Pred"
"iLumJFeKJT74QSXxlJLJx63CE" 10 "10pop" "Boots_will_send_the_flower_to_the_caterpillar" "right" "left" "training" "7/18/2019" "11:09" "left" 0 2116.69 1 "Post" "PO" "Pred"
"iLumJFeKJT74QSXxlJLJx63CE" 11 "4pop" "George_will_send_the_brush_to_the_donkey" "left" "right" "training" "7/18/2019" "11:09" "left" 1 3772.69 1 "Post" "PO" "Pred"
"iLumJFeKJT74QSXxlJLJx63CE" 12 "5pop" "The_girl_will_pass_the_dress_to_the_sheep" "right" "left" "training" "7/18/2019" "11:09" "right" 1 3513.69 1 "Post" "PO" "Pred"
"isclaECAm1tGFGQGrJ6XxNJpp" 1 "11pop" "Marshall_will_pass_the_gloves_to_the_bee" "left" "right" "training" "6/25/2019" "11:32" "left" 1 2135.535 1 "Pre" "PO" "Pred"
"isclaECAm1tGFGQGrJ6XxNJpp" 2 "9pop" "Dora_the_explorer_will_bring_the_spoon_to_the_hippo" "left" "right" "training" "6/25/2019" "11:32" "left" 1 6209.535 1 "Pre" "PO" "Pred"
"isclaECAm1tGFGQGrJ6XxNJpp" 3 "5pop" "The_girl_will_pass_the_dress_to_the_sheep" "left" "right" "training" "6/25/2019" "11:32" "left" 1 3022.535 1 "Pre" "PO" "Pred"
"isclaECAm1tGFGQGrJ6XxNJpp" 4 "4pop" "George_will_send_the_brush_to_the_donkey" "left" "right" "training" "6/25/2019" "11:32" "left" 1 3666.535 3 "Pre" "PO" "Pred"
"isclaECAm1tGFGQGrJ6XxNJpp" 5 "8pop" "Chase_will_give_the_biscuit_to_the_kitten" "right" "left" "training" "6/25/2019" "11:32" "right" 1 4532.535 1 "Pre" "PO" "Pred"
"isclaECAm1tGFGQGrJ6XxNJpp" 6 "1pop" "The_boy_will_throw_the_cheese_to_the_bear" "left" "right" "training" "6/25/2019" "11:32" "left" 1 4415.535 2 "Pre" "PO" "Pred"
"isclaECAm1tGFGQGrJ6XxNJpp" 7 "6pop" "Piglet_will_show_the_plate_to_the_fish" "left" "right" "training" "6/25/2019" "11:32" "left" 1 2868.535 1 "Pre" "PO" "Pred"
"isclaECAm1tGFGQGrJ6XxNJpp" 8 "2pop" "Tigger_will_give_the_bottle_to_the_zebra" "right" "left" "training" "6/25/2019" "11:32" "right" 1 3205.535 4 "Pre" "PO" "Pred"
"isclaECAm1tGFGQGrJ6XxNJpp" 9 "3pop" "Rebecca_Rabbit_will_bring_the_pencil_to_the_chicken" "right" "left" "training" "6/25/2019" "11:32" "right" 1 4920.535 1 "Pre" "PO" "Pred"
"isclaECAm1tGFGQGrJ6XxNJpp" 10 "10pop" "Boots_will_send_the_flower_to_the_caterpillar" "right" "left" "training" "6/25/2019" "11:32" "right" 1 4060.535 1 "Pre" "PO" "Pred"
"isclaECAm1tGFGQGrJ6XxNJpp" 11 "7pop" "Bob_the_builder_will_throw_the_shoe_to_the_penguin" "right" "left" "training" "6/25/2019" "11:32" "right" 1 3345.535 1 "Pre" "PO" "Pred"
"iseNCnCqCEyIiNnjFag4ulgmD" 1 "12doup" "Winnie_the_pooh_will_show_the_duck_the_owl" "left" "right" "training" "6/17/2019" "10:51" "left" 1 3278.012 1 "Pre" "DO" "NonPred"
"iseNCnCqCEyIiNnjFag4ulgmD" 2 "1doup" "The_boy_will_throw_the_bear_the_dinosaur" "right" "left" "training" "6/17/2019" "10:51" "right" 1 3644.012 1 "Pre" "DO" "NonPred"
"iseNCnCqCEyIiNnjFag4ulgmD" 3 "9doup" "Dora_the_explorer_will_bring_the_hippo_the_cow" "right" "left" "training" "6/17/2019" "10:51" "right" 1 3009.012 1 "Pre" "DO" "NonPred"
"iseNCnCqCEyIiNnjFag4ulgmD" 4 "6doup" "Piglet_will_show_the_fish_the_ant" "left" "right" "training" "6/17/2019" "10:51" "left" 1 1856.012 1 "Pre" "DO" "NonPred"
"iseNCnCqCEyIiNnjFag4ulgmD" 5 "5doup" "The_girl_will_pass_the_sheep_the_bird" "left" "right" "training" "6/17/2019" "10:51" "left" 1 3397.012 1 "Pre" "DO" "NonPred"
"iseNCnCqCEyIiNnjFag4ulgmD" 6 "11doup" "Marshall_will_pass_the_bee_the_goat" "left" "right" "training" "6/17/2019" "10:51" "left" 1 747.012 1 "Pre" "DO" "NonPred"
"iseNCnCqCEyIiNnjFag4ulgmD" 7 "4doup" "George_will_send_the_donkey_the_fox" "left" "right" "training" "6/17/2019" "10:51" "left" 1 3139.012 1 "Pre" "DO" "NonPred"
"iseNCnCqCEyIiNnjFag4ulgmD" 8 "7doup" "Bob_the_builder_will_throw_the_penguin_the_dog" "right" "left" "training" "6/17/2019" "10:51" "right" 1 3410.012 1 "Pre" "DO" "NonPred"
"iseNCnCqCEyIiNnjFag4ulgmD" 9 "8doup" "Chase_will_give_the_kitten_the_deer" "right" "left" "training" "6/17/2019" "10:51" "right" 1 1174.012 1 "Pre" "DO" "NonPred"
"iseNCnCqCEyIiNnjFag4ulgmD" 10 "10doup" "Boots_will_send_the_caterpillar_to_the_pig" "right" "left" "training" "6/17/2019" "10:51" "right" 1 1281.012 1 "Pre" "DO" "NonPred"
"iseNCnCqCEyIiNnjFag4ulgmD" 11 "2doup" "Tigger_will_give_the_zebra_the_butterfly" "right" "left" "training" "6/17/2019" "10:51" "right" 1 1413.012 1 "Pre" "DO" "NonPred"
"iseNCnCqCEyIiNnjFag4ulgmD" 12 "3doup" "Rebecca_Rabbit_will_bring_the_chicken_the_frog" "left" "right" "training" "6/17/2019" "10:51" "left" 1 804.012 1 "Pre" "DO" "NonPred"
"IubJKuZAYluSUxIEddzxWBXf7" 1 "3pop" "Rebecca_Rabbit_will_bring_the_pencil_to_the_chicken" "right" "left" "training" "7/2/2019" "11:32" "right" 1 6654.988 1 "Pre" "PO" "Pred"
"IubJKuZAYluSUxIEddzxWBXf7" 2 "2pop" "Tigger_will_give_the_bottle_to_the_zebra" "left" "right" "training" "7/2/2019" "11:32" "left" 1 3971.988 1 "Pre" "PO" "Pred"
"IubJKuZAYluSUxIEddzxWBXf7" 3 "7pop" "Bob_the_builder_will_throw_the_shoe_to_the_penguin" "right" "left" "training" "7/2/2019" "11:32" "right" 1 3079.988 1 "Pre" "PO" "Pred"
"IubJKuZAYluSUxIEddzxWBXf7" 4 "10pop" "Boots_will_send_the_flower_to_the_caterpillar" "left" "right" "training" "7/2/2019" "11:32" "left" 1 3849.988 1 "Pre" "PO" "Pred"
"IubJKuZAYluSUxIEddzxWBXf7" 5 "6pop" "Piglet_will_show_the_plate_to_the_fish" "left" "right" "training" "7/2/2019" "11:32" "left" 1 7221.988 1 "Pre" "PO" "Pred"
"IubJKuZAYluSUxIEddzxWBXf7" 6 "4pop" "George_will_send_the_brush_to_the_donkey" "right" "left" "training" "7/2/2019" "11:32" "right" 1 3033.988 1 "Pre" "PO" "Pred"
"IubJKuZAYluSUxIEddzxWBXf7" 7 "12pop" "Winnie_the_pooh_will_show_the_frisbee_to_the_duck" "left" "right" "training" "7/2/2019" "11:32" "left" 1 4233.988 1 "Pre" "PO" "Pred"
"IubJKuZAYluSUxIEddzxWBXf7" 8 "5pop" "The_girl_will_pass_the_dress_to_the_sheep" "left" "right" "training" "7/2/2019" "11:32" "left" 1 5708.988 1 "Pre" "PO" "Pred"
"IubJKuZAYluSUxIEddzxWBXf7" 9 "9pop" "Dora_the_explorer_will_bring_the_spoon_to_the_hippo" "right" "left" "training" "7/2/2019" "11:32" "right" 1 3720.988 1 "Pre" "PO" "Pred"
"IubJKuZAYluSUxIEddzxWBXf7" 10 "11pop" "Marshall_will_pass_the_gloves_to_the_bee" "left" "right" "training" "7/2/2019" "11:32" "left" 1 1558.988 1 "Pre" "PO" "Pred"
"IubJKuZAYluSUxIEddzxWBXf7" 11 "8pop" "Chase_will_give_the_biscuit_to_the_kitten" "right" "left" "training" "7/2/2019" "11:32" "right" 1 7508.988 1 "Pre" "PO" "Pred"
"IubJKuZAYluSUxIEddzxWBXf7" 12 "1pop" "The_boy_will_throw_the_cheese_to_the_bear" "right" "left" "training" "7/2/2019" "11:32" "right" 1 4025.988 1 "Pre" "PO" "Pred"
"jKVZJkEUAYCAGTBz9VnYGdeA8" 1 "9doup" "Dora_the_explorer_will_bring_the_hippo_the_cow" "left" "right" "training" "4/17/2019" "13:37" "right" 0 6194.748 1 "Pre" "DO" "NonPred"
"jKVZJkEUAYCAGTBz9VnYGdeA8" 2 "6doup" "Piglet_will_show_the_fish_the_ant" "right" "left" "training" "4/17/2019" "13:37" "right" 1 4205.748 1 "Pre" "DO" "NonPred"
"jKVZJkEUAYCAGTBz9VnYGdeA8" 3 "7doup" "Bob_the_builder_will_throw_the_penguin_the_dog" "right" "left" "training" "4/17/2019" "13:37" "right" 1 3178.748 1 "Pre" "DO" "NonPred"
"jKVZJkEUAYCAGTBz9VnYGdeA8" 4 "11doup" "Marshall_will_pass_the_bee_the_goat" "right" "left" "training" "4/17/2019" "13:37" "right" 1 3839.748 1 "Pre" "DO" "NonPred"
"jKVZJkEUAYCAGTBz9VnYGdeA8" 5 "3doup" "Rebecca_Rabbit_will_bring_the_chicken_the_frog" "right" "left" "training" "4/17/2019" "13:37" "right" 1 3570.748 1 "Pre" "DO" "NonPred"
"jKVZJkEUAYCAGTBz9VnYGdeA8" 6 "10doup" "Boots_will_send_the_caterpillar_to_the_pig" "right" "left" "training" "4/17/2019" "13:37" "right" 1 3596.748 1 "Pre" "DO" "NonPred"
"jKVZJkEUAYCAGTBz9VnYGdeA8" 7 "12doup" "Winnie_the_pooh_will_show_the_duck_the_owl" "left" "right" "training" "4/17/2019" "13:37" "left" 1 5635.748 1 "Pre" "DO" "NonPred"
"jKVZJkEUAYCAGTBz9VnYGdeA8" 8 "5doup" "The_girl_will_pass_the_sheep_the_bird" "left" "right" "training" "4/17/2019" "13:37" "left" 1 3014.748 1 "Pre" "DO" "NonPred"
"jKVZJkEUAYCAGTBz9VnYGdeA8" 9 "4doup" "George_will_send_the_donkey_the_fox" "right" "left" "training" "4/17/2019" "13:37" "right" 1 2047.748 1 "Pre" "DO" "NonPred"
"jKVZJkEUAYCAGTBz9VnYGdeA8" 10 "8doup" "Chase_will_give_the_kitten_the_deer" "left" "right" "training" "4/17/2019" "13:37" "left" 1 1885.748 1 "Pre" "DO" "NonPred"
"jKVZJkEUAYCAGTBz9VnYGdeA8" 11 "1doup" "The_boy_will_throw_the_bear_the_dinosaur" "left" "right" "training" "4/17/2019" "13:37" "left" 1 1853.748 1 "Pre" "DO" "NonPred"
"jKVZJkEUAYCAGTBz9VnYGdeA8" 12 "2doup" "Tigger_will_give_the_zebra_the_butterfly" "left" "right" "training" "4/17/2019" "13:37" "left" 1 2322.748 1 "Pre" "DO" "NonPred"
"kS7hiMfISjB4Le7mAvmM2ifmU" 1 "1poup" "The_boy_will_throw_the_dinosaur_to_the_bear" "right" "left" "training" "7/18/2019" "10:50" "right" 1 9058 1 "Pre" "PO" "NonPred"
"kS7hiMfISjB4Le7mAvmM2ifmU" 2 "5poup" "The_girl_will_pass_the_bird_to_the_sheep" "left" "right" "training" "7/18/2019" "10:50" "left" 1 7280 1 "Pre" "PO" "NonPred"
"kS7hiMfISjB4Le7mAvmM2ifmU" 3 "4poup" "George_will_send_the_fox_to_the_donkey" "right" "left" "training" "7/18/2019" "10:50" "right" 1 2525 1 "Pre" "PO" "NonPred"
"kS7hiMfISjB4Le7mAvmM2ifmU" 4 "7poup" "Bob_the_builder_will_throw_the_dog_to_the_penguin" "right" "left" "training" "7/18/2019" "10:50" "right" 1 2212 1 "Pre" "PO" "NonPred"
"kS7hiMfISjB4Le7mAvmM2ifmU" 5 "9poup" "Dora_the_explorer_will_bring_the_cow_to_the_hippo" "right" "left" "training" "7/18/2019" "10:50" "right" 1 3238 1 "Pre" "PO" "NonPred"
"kS7hiMfISjB4Le7mAvmM2ifmU" 6 "2poup" "Tigger_will_give_the_butterfly_to_the_zebra" "left" "right" "training" "7/18/2019" "10:50" "left" 1 2848 1 "Pre" "PO" "NonPred"
"kS7hiMfISjB4Le7mAvmM2ifmU" 7 "10poup" "Boots_will_send_the_pig_to_the_caterpillar" "left" "right" "training" "7/18/2019" "10:50" "left" 1 2137 1 "Pre" "PO" "NonPred"
"kS7hiMfISjB4Le7mAvmM2ifmU" 8 "11poup" "Marshall_will_pass_the_goat_to_the_bee" "right" "left" "training" "7/18/2019" "10:50" "right" 1 1882 1 "Pre" "PO" "NonPred"
"kS7hiMfISjB4Le7mAvmM2ifmU" 9 "8poup" "Chase_will_give_the_deer_to_the_kitten" "left" "right" "training" "7/18/2019" "10:50" "left" 1 3732 1 "Pre" "PO" "NonPred"
"kS7hiMfISjB4Le7mAvmM2ifmU" 10 "6poup" "Piglet_will_show_the_ant_to_the_fish" "right" "left" "training" "7/18/2019" "10:50" "right" 1 1918 1 "Pre" "PO" "NonPred"
"kS7hiMfISjB4Le7mAvmM2ifmU" 11 "3poup" "Rebecca_Rabbit_will_bring_the_frog_to_the_chicken" "left" "right" "training" "7/18/2019" "10:50" "left" 1 1484 1 "Pre" "PO" "NonPred"
"kS7hiMfISjB4Le7mAvmM2ifmU" 12 "12poup" "Winnie_the_pooh_will_show_the_owl_to_the_duck" "left" "right" "training" "7/18/2019" "10:50" "left" 1 2859 1 "Pre" "PO" "NonPred"
"kYyYeL2XWRmISezkKv8fgKLPi" 1 "3poup" "Rebecca_Rabbit_will_bring_the_frog_to_the_chicken" "left" "right" "training" "7/8/2019" "9:39" "right" 0 7826.435 1 "Pre" "PO" "NonPred"
"kYyYeL2XWRmISezkKv8fgKLPi" 2 "2poup" "Tigger_will_give_the_butterfly_to_the_zebra" "left" "right" "training" "7/8/2019" "9:39" "left" 1 6528.435 1 "Pre" "PO" "NonPred"
"kYyYeL2XWRmISezkKv8fgKLPi" 3 "1poup" "The_boy_will_throw_the_dinosaur_to_the_bear" "left" "right" "training" "7/8/2019" "9:39" "left" 1 4006.435 1 "Pre" "PO" "NonPred"
"kYyYeL2XWRmISezkKv8fgKLPi" 4 "11poup" "Marshall_will_pass_the_goat_to_the_bee" "right" "left" "training" "7/8/2019" "9:39" "right" 1 2995.435 1 "Pre" "PO" "NonPred"
"kYyYeL2XWRmISezkKv8fgKLPi" 5 "10poup" "Boots_will_send_the_pig_to_the_caterpillar" "right" "left" "training" "7/8/2019" "9:39" "right" 1 3876.435 1 "Pre" "PO" "NonPred"
"kYyYeL2XWRmISezkKv8fgKLPi" 6 "4poup" "George_will_send_the_fox_to_the_donkey" "left" "right" "training" "7/8/2019" "9:39" "left" 1 5062.435 1 "Pre" "PO" "NonPred"
"kYyYeL2XWRmISezkKv8fgKLPi" 7 "7poup" "Bob_the_builder_will_throw_the_dog_to_the_penguin" "right" "left" "training" "7/8/2019" "9:39" "right" 1 8418.435 1 "Pre" "PO" "NonPred"
"kYyYeL2XWRmISezkKv8fgKLPi" 8 "9poup" "Dora_the_explorer_will_bring_the_cow_to_the_hippo" "right" "left" "training" "7/8/2019" "9:39" "right" 1 16958.435 1 "Pre" "PO" "NonPred"
"kYyYeL2XWRmISezkKv8fgKLPi" 9 "12poup" "Winnie_the_pooh_will_show_the_owl_to_the_duck" "left" "right" "training" "7/8/2019" "9:39" "left" 1 13411.435 1 "Pre" "PO" "NonPred"
"kYyYeL2XWRmISezkKv8fgKLPi" 10 "6poup" "Piglet_will_show_the_ant_to_the_fish" "right" "left" "training" "7/8/2019" "9:39" "right" 1 6001.435 1 "Pre" "PO" "NonPred"
"kYyYeL2XWRmISezkKv8fgKLPi" 11 "5poup" "The_girl_will_pass_the_bird_to_the_sheep" "right" "left" "training" "7/8/2019" "9:39" "right" 1 6223.435 1 "Pre" "PO" "NonPred"
"kYyYeL2XWRmISezkKv8fgKLPi" 12 "8poup" "Chase_will_give_the_deer_to_the_kitten" "left" "right" "training" "7/8/2019" "9:39" "left" 1 8058.435 1 "Pre" "PO" "NonPred"
"ls4zgdQsgZ4Ay2nkrzQkj5Wo0" 1 "12pop" "Winnie_the_pooh_will_show_the_frisbee_to_the_duck" "right" "left" "training" "06/10/2019" "11:21" "right" 1 7507.592 1 "Post" "PO" "Pred"
"ls4zgdQsgZ4Ay2nkrzQkj5Wo0" 2 "3pop" "Rebecca_Rabbit_will_bring_the_pencil_to_the_chicken" "left" "right" "training" "06/10/2019" "11:21" "left" 1 2137.592 1 "Post" "PO" "Pred"
"ls4zgdQsgZ4Ay2nkrzQkj5Wo0" 3 "6pop" "Piglet_will_show_the_plate_to_the_fish" "right" "left" "training" "06/10/2019" "11:21" "right" 1 1370.592 1 "Post" "PO" "Pred"
"ls4zgdQsgZ4Ay2nkrzQkj5Wo0" 4 "2pop" "Tigger_will_give_the_bottle_to_the_zebra" "left" "right" "training" "06/10/2019" "11:21" "left" 1 2271.592 1 "Post" "PO" "Pred"
"ls4zgdQsgZ4Ay2nkrzQkj5Wo0" 5 "11pop" "Marshall_will_pass_the_gloves_to_the_bee" "left" "right" "training" "06/10/2019" "11:21" "left" 1 1411.592 1 "Post" "PO" "Pred"
"ls4zgdQsgZ4Ay2nkrzQkj5Wo0" 6 "10pop" "Boots_will_send_the_flower_to_the_caterpillar" "right" "left" "training" "06/10/2019" "11:21" "right" 1 1697.592 1 "Post" "PO" "Pred"
"ls4zgdQsgZ4Ay2nkrzQkj5Wo0" 7 "1pop" "The_boy_will_throw_the_cheese_to_the_bear" "right" "left" "training" "06/10/2019" "11:21" "right" 1 2344.592 1 "Post" "PO" "Pred"
"ls4zgdQsgZ4Ay2nkrzQkj5Wo0" 8 "8pop" "Chase_will_give_the_biscuit_to_the_kitten" "right" "left" "training" "06/10/2019" "11:21" "right" 1 1761.592 1 "Post" "PO" "Pred"
"ls4zgdQsgZ4Ay2nkrzQkj5Wo0" 9 "5pop" "The_girl_will_pass_the_dress_to_the_sheep" "right" "left" "training" "06/10/2019" "11:21" "right" 1 2004.592 1 "Post" "PO" "Pred"
"ls4zgdQsgZ4Ay2nkrzQkj5Wo0" 10 "7pop" "Bob_the_builder_will_throw_the_shoe_to_the_penguin" "left" "right" "training" "06/10/2019" "11:21" "left" 1 1964.592 1 "Post" "PO" "Pred"
"ls4zgdQsgZ4Ay2nkrzQkj5Wo0" 11 "9pop" "Dora_the_explorer_will_bring_the_spoon_to_the_hippo" "left" "right" "training" "06/10/2019" "11:21" "left" 1 2700.592 1 "Post" "PO" "Pred"
"ls4zgdQsgZ4Ay2nkrzQkj5Wo0" 12 "4pop" "George_will_send_the_brush_to_the_donkey" "left" "right" "training" "06/10/2019" "11:21" "left" 1 2492.592 1 "Post" "PO" "Pred"
"lTVByPLGfzAMn9tMylXQeom5w" 1 "5doup" "The_girl_will_pass_the_sheep_the_bird" "right" "left" "training" "7/1/2019" "12:50" "right" 1 7976.917 1 "Pre" "DO" "NonPred"
"lTVByPLGfzAMn9tMylXQeom5w" 2 "8doup" "Chase_will_give_the_kitten_the_deer" "left" "right" "training" "7/1/2019" "12:50" "right" 0 4275.917 1 "Pre" "DO" "NonPred"
"lTVByPLGfzAMn9tMylXQeom5w" 3 "6doup" "Piglet_will_show_the_fish_the_ant" "left" "right" "training" "7/1/2019" "12:50" "left" 1 4181.917 1 "Pre" "DO" "NonPred"
"lTVByPLGfzAMn9tMylXQeom5w" 4 "3doup" "Rebecca_Rabbit_will_bring_the_chicken_the_frog" "right" "left" "training" "7/1/2019" "12:50" "right" 1 4751.917 1 "Pre" "DO" "NonPred"
"lTVByPLGfzAMn9tMylXQeom5w" 5 "9doup" "Dora_the_explorer_will_bring_the_hippo_the_cow" "left" "right" "training" "7/1/2019" "12:50" "left" 1 6080.917 1 "Pre" "DO" "NonPred"
"lTVByPLGfzAMn9tMylXQeom5w" 6 "10doup" "Boots_will_send_the_caterpillar_to_the_pig" "left" "right" "training" "7/1/2019" "12:50" "left" 1 996.916999999999 1 "Pre" "DO" "NonPred"
"lTVByPLGfzAMn9tMylXQeom5w" 7 "4doup" "George_will_send_the_donkey_the_fox" "right" "left" "training" "7/1/2019" "12:50" "right" 1 4949.917 1 "Pre" "DO" "NonPred"
"lTVByPLGfzAMn9tMylXQeom5w" 8 "2doup" "Tigger_will_give_the_zebra_the_butterfly" "right" "left" "training" "7/1/2019" "12:50" "right" 1 7224.917 1 "Pre" "DO" "NonPred"
"lTVByPLGfzAMn9tMylXQeom5w" 9 "12doup" "Winnie_the_pooh_will_show_the_duck_the_owl" "left" "right" "training" "7/1/2019" "12:50" "left" 1 4099.917 1 "Pre" "DO" "NonPred"
"lTVByPLGfzAMn9tMylXQeom5w" 10 "1doup" "The_boy_will_throw_the_bear_the_dinosaur" "right" "left" "training" "7/1/2019" "12:50" "left" 0 6715.917 1 "Pre" "DO" "NonPred"
"lTVByPLGfzAMn9tMylXQeom5w" 11 "11doup" "Marshall_will_pass_the_bee_the_goat" "left" "right" "training" "7/1/2019" "12:50" "left" 1 1411.917 1 "Pre" "DO" "NonPred"
"lTVByPLGfzAMn9tMylXQeom5w" 12 "7doup" "Bob_the_builder_will_throw_the_penguin_the_dog" "right" "left" "training" "7/1/2019" "12:50" "right" 1 925.916999999999 1 "Pre" "DO" "NonPred"
"mADcRFAqiA2VCWmdKrjXLNlRi" 1 "2pop" "Tigger_will_give_the_bottle_to_the_zebra" "right" "left" "training" "7/17/2019" "9:55" "right" 1 9260.966 1 "Pre" "PO" "Pred"
"mADcRFAqiA2VCWmdKrjXLNlRi" 2 "9pop" "Dora_the_explorer_will_bring_the_spoon_to_the_hippo" "right" "left" "training" "7/17/2019" "9:55" "right" 1 3944.966 1 "Pre" "PO" "Pred"
"mADcRFAqiA2VCWmdKrjXLNlRi" 3 "7pop" "Bob_the_builder_will_throw_the_shoe_to_the_penguin" "left" "right" "training" "7/17/2019" "9:55" "left" 1 615.966 1 "Pre" "PO" "Pred"
"mADcRFAqiA2VCWmdKrjXLNlRi" 4 "12pop" "Winnie_the_pooh_will_show_the_frisbee_to_the_duck" "left" "right" "training" "7/17/2019" "9:55" "left" 1 2783.966 1 "Pre" "PO" "Pred"
"mADcRFAqiA2VCWmdKrjXLNlRi" 5 "10pop" "Boots_will_send_the_flower_to_the_caterpillar" "left" "right" "training" "7/17/2019" "9:55" "right" 0 2556.966 1 "Pre" "PO" "Pred"
"mADcRFAqiA2VCWmdKrjXLNlRi" 6 "6pop" "Piglet_will_show_the_plate_to_the_fish" "right" "left" "training" "7/17/2019" "9:55" "right" 1 1445.966 1 "Pre" "PO" "Pred"
"mADcRFAqiA2VCWmdKrjXLNlRi" 7 "11pop" "Marshall_will_pass_the_gloves_to_the_bee" "left" "right" "training" "7/17/2019" "9:55" "left" 1 1345.966 1 "Pre" "PO" "Pred"
"mADcRFAqiA2VCWmdKrjXLNlRi" 8 "5pop" "The_girl_will_pass_the_dress_to_the_sheep" "left" "right" "training" "7/17/2019" "9:55" "left" 1 6018.966 1 "Pre" "PO" "Pred"
"mADcRFAqiA2VCWmdKrjXLNlRi" 9 "1pop" "The_boy_will_throw_the_cheese_to_the_bear" "right" "left" "training" "7/17/2019" "9:55" "right" 1 4204.966 1 "Pre" "PO" "Pred"
"mADcRFAqiA2VCWmdKrjXLNlRi" 10 "3pop" "Rebecca_Rabbit_will_bring_the_pencil_to_the_chicken" "right" "left" "training" "7/17/2019" "9:55" "right" 1 2248.966 1 "Pre" "PO" "Pred"
"mADcRFAqiA2VCWmdKrjXLNlRi" 11 "8pop" "Chase_will_give_the_biscuit_to_the_kitten" "right" "left" "training" "7/17/2019" "9:55" "right" 1 2673.966 1 "Pre" "PO" "Pred"
"mADcRFAqiA2VCWmdKrjXLNlRi" 12 "4pop" "George_will_send_the_brush_to_the_donkey" "left" "right" "training" "7/17/2019" "9:55" "left" 1 1214.966 1 "Pre" "PO" "Pred"
"mAHHSzVZTjvhQSUAEWxAxdAgm" 1 "5pop" "The_girl_will_pass_the_dress_to_the_sheep" "left" "right" "training" "7/17/2019" "9:55" "left" 1 8433.342 1 "Post" "PO" "Pred"
"mAHHSzVZTjvhQSUAEWxAxdAgm" 2 "2pop" "Tigger_will_give_the_bottle_to_the_zebra" "left" "right" "training" "7/17/2019" "9:55" "left" 1 4759.342 1 "Post" "PO" "Pred"
"mAHHSzVZTjvhQSUAEWxAxdAgm" 3 "11pop" "Marshall_will_pass_the_gloves_to_the_bee" "left" "right" "training" "7/17/2019" "9:55" "left" 1 4942.342 1 "Post" "PO" "Pred"
"mAHHSzVZTjvhQSUAEWxAxdAgm" 4 "7pop" "Bob_the_builder_will_throw_the_shoe_to_the_penguin" "right" "left" "training" "7/17/2019" "9:55" "right" 1 6439.342 1 "Post" "PO" "Pred"
"mAHHSzVZTjvhQSUAEWxAxdAgm" 5 "1pop" "The_boy_will_throw_the_cheese_to_the_bear" "left" "right" "training" "7/17/2019" "9:55" "left" 1 4709.342 1 "Post" "PO" "Pred"
"mAHHSzVZTjvhQSUAEWxAxdAgm" 6 "3pop" "Rebecca_Rabbit_will_bring_the_pencil_to_the_chicken" "right" "left" "training" "7/17/2019" "9:55" "right" 1 1538.342 1 "Post" "PO" "Pred"
"mAHHSzVZTjvhQSUAEWxAxdAgm" 7 "4pop" "George_will_send_the_brush_to_the_donkey" "right" "left" "training" "7/17/2019" "9:55" "right" 1 3669.342 1 "Post" "PO" "Pred"
"mAHHSzVZTjvhQSUAEWxAxdAgm" 8 "6pop" "Piglet_will_show_the_plate_to_the_fish" "left" "right" "training" "7/17/2019" "9:55" "left" 1 6072.342 1 "Post" "PO" "Pred"
"mAHHSzVZTjvhQSUAEWxAxdAgm" 9 "8pop" "Chase_will_give_the_biscuit_to_the_kitten" "right" "left" "training" "7/17/2019" "9:55" "right" 1 2786.342 1 "Post" "PO" "Pred"
"mAHHSzVZTjvhQSUAEWxAxdAgm" 10 "10pop" "Boots_will_send_the_flower_to_the_caterpillar" "left" "right" "training" "7/17/2019" "9:55" "left" 1 3344.342 1 "Post" "PO" "Pred"
"mAHHSzVZTjvhQSUAEWxAxdAgm" 11 "12pop" "Winnie_the_pooh_will_show_the_frisbee_to_the_duck" "right" "left" "training" "7/17/2019" "9:55" "right" 1 2579.342 1 "Post" "PO" "Pred"
"mAHHSzVZTjvhQSUAEWxAxdAgm" 12 "9pop" "Dora_the_explorer_will_bring_the_spoon_to_the_hippo" "right" "left" "training" "7/17/2019" "9:55" "right" 1 3523.342 1 "Post" "PO" "Pred"
"MIc4v8dmnHxthlAYf9jNB5p65" 1 "1dop" "The_boy_will_throw_the_bear_the_cheese" "right" "left" "training" "6/28/2019" "10:49" "right" 1 5321.661 1 "Post" "DO" "Pred"
"MIc4v8dmnHxthlAYf9jNB5p65" 2 "8dop" "Chase_will_give_the_kitten_the_bisuit" "left" "right" "training" "6/28/2019" "10:49" "left" 1 3800.661 1 "Post" "DO" "Pred"
"MIc4v8dmnHxthlAYf9jNB5p65" 3 "5dop" "The_girl_will_pass_the_sheep_the_dress" "left" "right" "training" "6/28/2019" "10:49" "left" 1 5435.661 1 "Post" "DO" "Pred"
"MIc4v8dmnHxthlAYf9jNB5p65" 4 "3dop" "Rebecca_Rabbit_will_bring_the_chicken_the_pencil" "left" "right" "training" "6/28/2019" "10:49" "left" 1 6412.661 1 "Post" "DO" "Pred"
"MIc4v8dmnHxthlAYf9jNB5p65" 5 "10dop" "Boots_will_send_the_caterpillar_the_flower" "right" "left" "training" "6/28/2019" "10:49" "right" 1 1566.661 1 "Post" "DO" "Pred"
"MIc4v8dmnHxthlAYf9jNB5p65" 6 "9dop" "Dora_the_explorer_will_bring_the_hippo_the_spoon" "left" "right" "training" "6/28/2019" "10:49" "left" 1 6288.661 1 "Post" "DO" "Pred"
"MIc4v8dmnHxthlAYf9jNB5p65" 7 "6dop" "Piglet_will_show_the_fish_the_plate" "left" "right" "training" "6/28/2019" "10:49" "left" 1 1321.661 1 "Post" "DO" "Pred"
"MIc4v8dmnHxthlAYf9jNB5p65" 8 "2dop" "Tigger_will_give_the_zebra_the_bottle" "right" "left" "training" "6/28/2019" "10:49" "right" 1 4731.661 1 "Post" "DO" "Pred"
"MIc4v8dmnHxthlAYf9jNB5p65" 9 "4dop" "George_will_send_the_donkey_the_brush" "left" "right" "training" "6/28/2019" "10:49" "left" 1 1864.661 1 "Post" "DO" "Pred"
"MIc4v8dmnHxthlAYf9jNB5p65" 10 "7dop" "Bob_the_builder_will_throw_the_penguin_the_shoe" "right" "left" "training" "6/28/2019" "10:49" "right" 1 2310.661 1 "Post" "DO" "Pred"
"MIc4v8dmnHxthlAYf9jNB5p65" 11 "11dop" "Marshall_will_pass_the_bee_the_gloves" "right" "left" "training" "6/28/2019" "10:49" "right" 1 2926.661 1 "Post" "DO" "Pred"
"MIc4v8dmnHxthlAYf9jNB5p65" 12 "12dop" "Winnie_the_pooh_will_show_the_duck_the_frisbee" "right" "left" "training" "6/28/2019" "10:49" "right" 1 1517.661 1 "Post" "DO" "Pred"
"n0QM2830f1sZdddGcFJM7fi0a" 1 "5pop" "The_girl_will_pass_the_dress_to_the_sheep" "right" "left" "training" "7/18/2019" "11:09" "right" 1 6329.342 1 "Post" "PO" "Pred"
"n0QM2830f1sZdddGcFJM7fi0a" 2 "4pop" "George_will_send_the_brush_to_the_donkey" "right" "left" "training" "7/18/2019" "11:09" "right" 1 1668.342 1 "Post" "PO" "Pred"
"n0QM2830f1sZdddGcFJM7fi0a" 3 "11pop" "Marshall_will_pass_the_gloves_to_the_bee" "left" "right" "training" "7/18/2019" "11:09" "left" 1 1446.342 1 "Post" "PO" "Pred"
"n0QM2830f1sZdddGcFJM7fi0a" 4 "9pop" "Dora_the_explorer_will_bring_the_spoon_to_the_hippo" "left" "right" "training" "7/18/2019" "11:09" "left" 1 4374.342 1 "Post" "PO" "Pred"
"n0QM2830f1sZdddGcFJM7fi0a" 5 "6pop" "Piglet_will_show_the_plate_to_the_fish" "right" "left" "training" "7/18/2019" "11:09" "right" 1 1783.342 1 "Post" "PO" "Pred"
"n0QM2830f1sZdddGcFJM7fi0a" 6 "1pop" "The_boy_will_throw_the_cheese_to_the_bear" "right" "left" "training" "7/18/2019" "11:09" "right" 1 3443.342 1 "Post" "PO" "Pred"
"n0QM2830f1sZdddGcFJM7fi0a" 7 "2pop" "Tigger_will_give_the_bottle_to_the_zebra" "left" "right" "training" "7/18/2019" "11:09" "left" 1 1791.342 1 "Post" "PO" "Pred"
"n0QM2830f1sZdddGcFJM7fi0a" 8 "7pop" "Bob_the_builder_will_throw_the_shoe_to_the_penguin" "left" "right" "training" "7/18/2019" "11:09" "left" 1 863.342000000001 1 "Post" "PO" "Pred"
"n0QM2830f1sZdddGcFJM7fi0a" 9 "8pop" "Chase_will_give_the_biscuit_to_the_kitten" "right" "left" "training" "7/18/2019" "11:09" "right" 1 3576.342 1 "Post" "PO" "Pred"
"n0QM2830f1sZdddGcFJM7fi0a" 10 "10pop" "Boots_will_send_the_flower_to_the_caterpillar" "right" "left" "training" "7/18/2019" "11:09" "right" 1 3285.342 1 "Post" "PO" "Pred"
"n0QM2830f1sZdddGcFJM7fi0a" 11 "12pop" "Winnie_the_pooh_will_show_the_frisbee_to_the_duck" "left" "right" "training" "7/18/2019" "11:09" "left" 1 854.342000000001 1 "Post" "PO" "Pred"
"n0QM2830f1sZdddGcFJM7fi0a" 12 "3pop" "Rebecca_Rabbit_will_bring_the_pencil_to_the_chicken" "left" "right" "training" "7/18/2019" "11:09" "right" 0 3133.342 1 "Post" "PO" "Pred"
"n1rv5Hr5IS81uEHeBAJK9gCzL" 1 "9poup" "Dora_the_explorer_will_bring_the_cow_to_the_hippo" "right" "left" "training" "05/03/2019" "16:21" "right" 1 2691.756 1 "Pre" "PO" "NonPred"
"n1rv5Hr5IS81uEHeBAJK9gCzL" 2 "3poup" "Rebecca_Rabbit_will_bring_the_frog_to_the_chicken" "left" "right" "training" "05/03/2019" "16:21" "left" 1 2329.756 1 "Pre" "PO" "NonPred"
"n1rv5Hr5IS81uEHeBAJK9gCzL" 3 "8poup" "Chase_will_give_the_deer_to_the_kitten" "left" "right" "training" "05/03/2019" "16:21" "left" 1 2049.756 1 "Pre" "PO" "NonPred"
"n1rv5Hr5IS81uEHeBAJK9gCzL" 4 "5poup" "The_girl_will_pass_the_bird_to_the_sheep" "left" "right" "training" "05/03/2019" "16:21" "left" 1 5764.756 1 "Pre" "PO" "NonPred"
"n1rv5Hr5IS81uEHeBAJK9gCzL" 5 "11poup" "Marshall_will_pass_the_goat_to_the_bee" "right" "left" "training" "05/03/2019" "16:21" "right" 1 4231.756 1 "Pre" "PO" "NonPred"
"n1rv5Hr5IS81uEHeBAJK9gCzL" 6 "10poup" "Boots_will_send_the_pig_to_the_caterpillar" "right" "left" "training" "05/03/2019" "16:21" "right" 1 1326.756 1 "Pre" "PO" "NonPred"
"n1rv5Hr5IS81uEHeBAJK9gCzL" 7 "4poup" "George_will_send_the_fox_to_the_donkey" "left" "right" "training" "05/03/2019" "16:21" "left" 1 2968.756 1 "Pre" "PO" "NonPred"
"n1rv5Hr5IS81uEHeBAJK9gCzL" 8 "6poup" "Piglet_will_show_the_ant_to_the_fish" "right" "left" "training" "05/03/2019" "16:21" "right" 1 2033.756 1 "Pre" "PO" "NonPred"
"n1rv5Hr5IS81uEHeBAJK9gCzL" 9 "7poup" "Bob_the_builder_will_throw_the_dog_to_the_penguin" "left" "right" "training" "05/03/2019" "16:21" "left" 1 2204.756 1 "Pre" "PO" "NonPred"
"n1rv5Hr5IS81uEHeBAJK9gCzL" 10 "12poup" "Winnie_the_pooh_will_show_the_owl_to_the_duck" "left" "right" "training" "05/03/2019" "16:21" "left" 1 4827.756 1 "Pre" "PO" "NonPred"
"n1rv5Hr5IS81uEHeBAJK9gCzL" 11 "1poup" "The_boy_will_throw_the_dinosaur_to_the_bear" "right" "left" "training" "05/03/2019" "16:21" "right" 1 1476.756 1 "Pre" "PO" "NonPred"
"n1rv5Hr5IS81uEHeBAJK9gCzL" 12 "2poup" "Tigger_will_give_the_butterfly_to_the_zebra" "right" "left" "training" "05/03/2019" "16:21" "right" 1 1017.756 1 "Pre" "PO" "NonPred"
"na6JemgEBhLGSAFLy5wX7Gw3O" 1 "7pop" "Bob_the_builder_will_throw_the_shoe_to_the_penguin" "right" "left" "training" "7/2/2019" "9:08" "right" 1 9058.69 1 "Pre" "PO" "Pred"
"na6JemgEBhLGSAFLy5wX7Gw3O" 2 "10pop" "Boots_will_send_the_flower_to_the_caterpillar" "left" "right" "training" "7/2/2019" "9:08" "left" 1 3112.69 1 "Pre" "PO" "Pred"
